ID	DateTime	Run	Delayed_Retrieval_Trial	First_Pulse_Time	FaceRecog_OnsetTime	FaceRecog_OnsetTimeUncertainty	FaceRecog_fMRI_Pulse	FaceRecog_fMRI_PulseTime	Assoc_Retrieval_OnsetTime	Assoc_Retrieval_OnsetTimeUncertainty	Assoc_Retrieval_fMRI_Pulse	Assoc_Retrieval_fMRI_PulseTime	Assoc_Retrieval_Pressed_Button	Assoc_Retrieval_RT	Assoc_Retrieval_Response_Category	Assoc_Retrieval_Accuracy	Assoc_Retrieval_Feedback_OnsetTime	Assoc_Retrieval_Feedback_OnsetTimeUncertainty	Assoc_Retrieval_Feedback_fMRI_Pulse	Assoc_Retrieval_Feedback_fMRI_PulseTime	Retrieval_consc_Rating_OnsetTime	Retrieval_consc_Rating_OnsetTimeUncertainty	Retrieval_consc_Rating_fMRI_Pulse	Retrieval_consc_Rating_fMRI_PulseTime	Retrieval_consc_Rating_Pressed_Button	Retrieval_consc_Rating_RT	Retrieval_consc_Rating_Feedback_OnsetTime	Retrieval_consc_Rating_Feedback_OnsetTimeUncertainty	Retrieval_consc_Rating_Feedback_fMRI_Pulse	Retrieval_consc_Rating_Feedback_fMRI_PulseTime	ForcedChoice_OnsetTime	ForcedChoice_OnsetTimeUncertainty	ForcedChoice_fMRI_Pulse	ForcedChoice_fMRI_PulseTime	ForcedChoice_Pressed_Button	ForcedChoice_RT	ForcedChoice_Response_Category	ForcedChoice_Accuracy	ForcedChoice_Feedback_OnsetTime	ForcedChoice_Feedback_OnsetTimeUncertainty	ForcedChoice_Feedback_fMRI_Pulse	ForcedChoice_Feedback_fMRI_PulseTime	Recognition_consc_Rating_OnsetTime	Recognition_consc_Rating_OnsetTimeUncertainty	Recognition_consc_Rating_fMRI_Pulse	Recognition_consc_Rating_fMRI_PulseTime	Recognition_consc_Rating_Pressed_Button	Recognition_consc_Rating_RT	Recognition_consc_Rating_Feedback_OnsetTime	Recognition_consc_Rating_Feedback_OnsetTimeUncertainty	Recognition_consc_Rating_Feedback_fMRI_Pulse	Recognition_consc_Rating_Feedback_fMRI_PulseTime	Presented_Person	Presented_Target	Presented_Lure	TrialStatus
60100	06/30/2021 15:20:58	1	1	209511	223774	1	6	223010	226273	1	7	225711	2	1554	organic	incorrect	227856	1	7	225711	230539	1	8	228410	2	646	231205	1	9	231111	235054	1	10	233811	0	0	organic	miss	235054	1	11	236510	238636	1	11	236510	4	1161	239835	1	12	239211	mof_02408.png	mof_Hahn.png	mof_Spaghetti.png	ok
60100	06/30/2021 15:21:17	1	2	209511	242801	1	13	241910	245533	1	14	244610	2	1170	inorganic	correct	246733	1	14	244610	249632	1	15	247311	3	271	249932	1	15	247311	254647	1	17	252710	3	2465	inorganic	correct	257146	1	18	255411	258313	1	19	258110	3	1161	259495	1	19	258110	fax_14883.png	fax_Fahrrad.png	fax_Klebeband.png	ok
60100	06/30/2021 15:21:37	1	3	209511	262111	1	20	260810	264111	1	21	263511	2	1249	organic	incorrect	265410	1	21	263511	268776	1	22	266210	3	416	269242	1	23	268910	273424	1	24	271611	2	1970	organic	correct	275423	1	25	274310	277889	1	26	277010	2	371	278289	1	26	277010	mom_59361.png	mom_Ei.png	mom_Loewe.png	ok
60100	06/30/2021 15:21:58	1	4	209511	282105	1	27	279711	284704	1	28	282410	3	901	organic	correct	285637	1	29	285110	289152	1	30	287810	3	561	289735	1	30	287810	292951	1	31	290510	2	2237	organic	correct	295217	1	32	293210	297833	1	33	295910	3	1342	299199	1	34	298610	moh_06446.png	moh_Muecke.png	moh_Birne.png	ok
60100	06/30/2021 15:22:21	1	5	209511	303081	1	35	301310	306430	1	36	304010	3	1720	inorganic	incorrect	308179	1	37	306710	310928	1	38	309410	2	403	311361	1	38	309410	315976	1	40	314810	3	2355	inorganic	correct	318376	1	41	317510	321041	1	42	320210	4	774	321841	1	42	320210	fap_16329.png	fap_Knopf.png	fap_Kissen.png	ok
60100	06/30/2021 15:22:43	1	6	209511	325623	1	43	322910	328705	1	45	328310	2	2083	inorganic	correct	330821	1	45	328310	333970	1	47	333709	2	1488	335487	1	47	333709	339002	1	48	336410	3	1702	inorganic	correct	340735	1	49	339110	342751	1	50	341809	4	612	343401	1	50	341809	maw_04767.png	maw_Pingpongschlaeger.png	maw_Schlauchboot.png	ok
60100	06/30/2021 15:23:02	1	7	209511	348016	1	52	347210	350448	1	53	349909	3	242	inorganic	incorrect	350715	1	53	349909	354497	1	54	352610	3	248	354780	1	54	352610	357946	1	55	355310	3	2868	inorganic	incorrect	360845	1	57	360710	361578	1	57	360710	2	1618	363227	1	57	360710	fat_12032.png	fat_Einkaufswagen.png	fat_Kleiderbuegel.png	ok
60100	06/30/2021 15:23:24	1	8	209511	366576	1	59	366109	370042	1	60	368810	3	478	organic	correct	370558	1	60	368810	374807	1	62	374209	4	519	375356	1	62	374209	379738	1	64	379609	2	1823	organic	correct	381588	1	64	379609	384054	1	65	382309	4	391	384470	1	65	382309	fok_09378.png	fok_Palme.png	fok_Kaenguruh.png	ok
60100	06/30/2021 15:23:44	1	9	209511	389168	1	67	387709	391401	1	68	390409	3	1967	organic	correct	393400	1	69	393110	395916	1	70	395809	3	230	396183	1	70	395809	400198	1	71	398509	2	1135	organic	correct	401364	1	72	401210	404463	1	73	403909	4	274	404763	1	73	403909	mog_03090.png	mog_Fledermaus.png	mog_Pilz.png	ok
60100	06/30/2021 15:24:03	1	10	209511	408479	1	74	406609	410145	1	75	409310	3	1715	organic	correct	411894	1	75	409310	414027	1	76	412009	3	522	414593	1	76	412009	418359	1	78	417410	3	2241	organic	correct	420625	1	79	420109	423807	1	80	422809	4	459	424290	1	80	422809	foj_08220.png	foj_Waffel.png	foj_Rose.png	ok
60100	06/30/2021 15:24:23	1	11	209511	427789	1	81	425509	429971	1	82	428209	2	1779	inorganic	correct	431787	1	83	430909	434070	1	84	433609	3	203	434303	1	84	433609	439152	1	86	439009	3	2937	inorganic	correct	442117	1	87	441709	444600	1	88	444409	3	2025	446649	1	88	444409	fal_07906.png	fal_Buegeleisen.png	fal_Korb.png	ok
60100	06/30/2021 15:24:44	1	12	209511	448249	1	89	447109	450898	1	90	449809	3	910	organic	correct	451831	1	90	449809	455546	1	92	455209	4	755	456329	1	92	455209	459628	1	93	457909	3	1219	organic	correct	460878	1	94	460609	463443	2	95	463308	4	538	464027	1	95	463308	fou_17118.png	fou_Schmetterling.png	fou_Feige.png	ok
60100	06/30/2021 15:25:06	1	13	209511	468658	1	96	466009	472141	1	98	471408	3	529	organic	correct	472707	1	98	471408	476906	1	100	476809	4	229	477172	1	100	476809	480688	1	101	479508	3	1464	organic	correct	482187	1	101	479508	485469	1	103	484909	4	917	486419	1	103	484909	foq_16799.png	foq_Fenchel.png	foq_Pinguin.png	ok
60100	06/30/2021 15:25:24	1	14	209511	490501	1	105	490309	493100	1	106	493009	2	1044	inorganic	correct	494166	1	106	493009	496916	1	107	495708	4	1270	498215	1	107	495708	500298	1	108	498409	2	1398	inorganic	correct	501731	1	109	501109	504896	1	110	503808	4	553	505479	1	110	503808	mak_00987.png	mak_Socken.png	mak_Rucksack.png	ok
60100	06/30/2021 15:25:44	1	15	209511	508412	1	111	506509	511861	1	112	509208	2	556	inorganic	correct	512477	1	113	511908	515659	1	114	514609	3	273	515976	1	114	514609	520358	1	116	520008	3	2832	inorganic	incorrect	523223	1	117	522709	524789	1	117	522709	3	206	525023	1	117	522709	mao_11634.png	mao_Stempel.png	mao_Kegel.png	ok
60100	06/30/2021 15:26:03	1	16	209511	528688	1	119	528108	530787	1	119	528108	3	952	organic	correct	531770	1	120	530809	534320	1	121	533508	4	274	534620	1	121	533508	538468	1	122	536208	3	1947	organic	correct	540451	1	123	538909	543050	1	124	541608	4	240	543317	1	124	541608	fop_00621.png	fop_Koala.png	fop_Mango.png	ok
60100	06/30/2021 15:26:23	1	17	209511	547698	1	126	547009	549848	1	127	549708	3	820	organic	correct	550697	1	127	549708	554196	1	128	552408	4	231	554463	1	128	552408	559111	1	130	557808	3	852	organic	correct	559994	1	130	557808	564110	1	132	563208	4	270	564426	1	132	563208	mos_20953.png	mos_Eintagsfliege.png	mos_Traube.png	ok
60100	06/30/2021 15:26:43	1	18	209511	568325	1	133	565908	571674	1	135	571308	3	2161	organic	correct	573856	1	135	571308	575356	1	136	574008	3	762	576156	1	136	574008	579105	1	137	576708	3	2436	organic	correct	581570	1	138	579408	582720	1	139	582108	4	733	583486	1	139	582108	foc_02157.png	foc_Brombeere.png	foc_Eule.png	ok
60100	06/30/2021 15:27:01	1	19	209511	587735	1	141	587508	589534	1	141	587508	2	1778	inorganic	correct	591350	1	142	590208	594116	1	143	592908	2	320	594466	1	143	592908	598698	1	145	598308	3	1941	inorganic	correct	600664	1	145	598308	602397	1	146	601007	4	509	602930	1	146	601007	fan_17286.png	fan_Klavier.png	fan_Lampe.png	ok
60100	06/30/2021 15:27:22	1	20	209511	606095	1	147	603708	609444	1	149	609107	3	875	organic	correct	610377	1	149	609107	612993	1	150	611808	4	514	613560	1	150	611808	617958	1	152	617208	3	1892	organic	correct	619874	1	152	617208	622723	1	154	622608	4	272	623023	1	154	622608	fov_15046.png	fov_Zucchini.png	fov_Fisch.png	ok
60100	06/30/2021 15:27:41	1	21	209511	626455	1	155	625308	628555	1	156	628008	3	1680	inorganic	incorrect	630271	1	156	628008	632037	1	157	630708	3	1520	633586	1	158	633408	635969	1	158	633408	3	2279	inorganic	correct	638268	1	159	636108	640184	1	160	638808	3	344	640551	1	160	638808	faw_14215.png	faw_Kuechenmaschine.png	faw_Hufeisen.png	ok
60100	06/30/2021 15:28:00	1	22	209511	645382	1	162	644208	648614	1	163	646907	3	593	inorganic	incorrect	649231	1	163	646907	652696	1	165	652308	3	213	652946	1	165	652308	656145	1	166	655007	2	2838	inorganic	correct	659011	1	167	657707	660944	1	168	660408	3	1484	662476	1	168	660408	mat_23275.png	mat_Feuerzeug.png	mat_Helm.png	ok
60100	06/30/2021 15:28:21	1	23	209511	664576	1	169	663107	667258	1	170	665808	2	574	inorganic	correct	667858	1	170	665808	671890	1	172	671208	4	367	672290	1	172	671208	676139	1	173	673908	2	771	inorganic	correct	676938	1	174	676608	681703	1	175	679307	4	275	682003	1	175	679307	faj_07783.png	faj_Schuh.png	faj_Parfuem.png	ok
60100	06/30/2021 15:28:41	1	24	209511	686235	1	177	684708	689267	1	178	687407	2	1262	inorganic	correct	690567	1	179	690108	693749	1	180	692807	4	243	694016	1	180	692807	697481	1	181	695507	2	857	inorganic	correct	698364	1	182	698208	701064	1	183	700907	4	506	701597	1	183	700907	far_00736.png	far_Heissluftballon.png	far_Giesskanne.png	ok
60100	06/30/2021 15:29:03	1	25	209511	705879	1	184	703607	708411	1	185	706308	2	1208	organic	incorrect	709661	1	186	709007	713343	1	187	711707	3	231	713626	1	187	711707	717658	1	189	717107	3	2659	organic	correct	720340	1	190	719808	722373	1	190	719808	2	732	723139	1	191	722508	fot_00797.png	fot_Salat.png	fot_Taube.png	ok
60100	06/30/2021 15:29:22	1	26	209511	727421	1	192	725207	729087	1	193	727907	3	1413	organic	correct	730537	1	193	727907	733752	1	195	733308	4	520	734302	1	195	733308	737918	1	196	736007	2	779	organic	correct	738717	1	196	736007	743199	1	198	741407	4	941	744166	1	199	744107	mot_69374.png	mot_Bison.png	mot_Hotdog.png	ok
60100	06/30/2021 15:29:43	1	27	209511	747031	1	200	746807	749664	1	201	749508	2	815	inorganic	correct	750514	1	201	749508	753562	1	202	752207	4	776	754362	1	202	752207	758461	1	204	757608	3	1147	inorganic	correct	759660	1	204	757608	763176	1	206	763008	4	737	763959	1	206	763008	mal_04470.png	mal_Kugelschreiber.png	mal_Drucker.png	ok
60100	06/30/2021 15:30:04	1	28	209511	768058	1	207	765708	770307	1	208	768408	2	934	inorganic	correct	771273	1	209	771108	774922	1	210	773808	4	703	775655	1	210	773808	779770	1	212	779208	3	916	inorganic	correct	780720	1	212	779208	783669	1	213	781908	4	627	784319	1	213	781908	mau_49693.png	mau_Leiter.png	mau_Wasserventil.png	ok
60100	06/30/2021 15:30:23	1	29	209511	788801	1	215	787308	790683	1	216	790008	3	956	organic	correct	791666	1	216	790008	794865	1	217	792707	4	503	795398	1	217	792707	799130	1	219	798108	2	1906	organic	correct	801063	1	220	800807	804362	1	221	803508	4	645	805045	1	221	803508	for_15187.png	for_Seehund.png	for_Mandel.png	ok
60100	06/30/2021 15:30:44	1	30	209511	808261	1	222	806208	810710	1	223	808907	3	1110	organic	correct	811860	1	224	811608	814675	1	225	814308	4	886	815592	1	225	814308	818741	1	226	817007	3	2179	organic	correct	820940	1	227	819708	824189	1	228	822408	4	303	824522	1	228	822408	mon_65798.png	mon_Kartoffel.png	mon_Fuchs.png	ok
60100	06/30/2021 15:31:05	1	31	209511	828804	1	230	827808	831070	1	231	830507	2	1394	inorganic	correct	832486	1	231	830507	834968	1	232	833207	3	322	835318	1	232	833207	838984	1	234	838607	2	1377	inorganic	correct	840383	1	234	838607	844532	1	236	844008	4	290	844848	1	236	844008	mae_01010.png	mae_Taschenrechner.png	mae_Schach.png	ok
60100	06/30/2021 15:31:25	1	32	209511	849830	1	238	849407	852846	1	239	852108	2	481	inorganic	correct	853362	1	239	852108	856328	1	240	854807	4	781	857161	1	240	854807	861143	1	242	860208	3	779	inorganic	correct	861959	1	242	860208	865841	1	244	865607	4	204	866075	1	244	865607	fac_02146.png	fac_Haarbuerste.png	fac_Ohrring.png	ok
60100	06/30/2021 15:31:45	1	33	209511	869423	1	245	868307	872189	1	246	871007	3	1782	inorganic	incorrect	874005	1	247	873707	875688	1	247	873707	3	415	876138	1	247	873707	880820	1	249	879107	2	2404	inorganic	incorrect	883252	1	250	881807	885635	1	251	884507	2	614	886284	1	251	884507	mai_06530.png	mai_Auto.png	mai_Gewehr.png	ok
60100	06/30/2021 15:32:04	1	34	209511	889917	1	252	887207	892016	1	253	889907	2	634	inorganic	correct	892682	1	254	892607	895431	1	255	895307	3	1802	897264	1	255	895307	900047	1	256	898007	2	674	inorganic	correct	900746	1	257	900707	903779	1	258	903407	4	426	904228	1	258	903407	mas_41366.png	mas_Tisch.png	mas_Bueroklammer.png	ok
60100	06/30/2021 15:32:26	1	35	209511	908944	1	260	908807	912142	1	261	911507	3	874	organic	correct	913059	1	261	911507	916758	1	262	914206	3	290	917074	1	263	916907	921456	1	264	919607	3	2093	organic	incorrect	923572	1	265	922306	926454	1	266	925007	2	1350	927837	1	267	927707	moj_11821.png	moj_Blatt.png	moj_Walnuss.png	ok
60100	06/30/2021 15:32:44	1	36	209511	931303	1	268	930406	932969	1	268	930406	2	1498	organic	incorrect	934502	1	269	933107	936884	1	270	935807	2	972	937884	1	270	935807	940683	1	271	938506	3	1827	organic	correct	942532	1	272	941207	944981	1	273	943907	4	325	945331	1	273	943907	mou_01862.png	mou_Croissant.png	mou_Kraehe.png	ok
60100	06/30/2021 15:33:04	1	37	209511	949080	1	274	946606	951629	1	275	949307	3	1049	organic	correct	952712	1	276	952007	956644	1	277	954706	4	228	956911	1	277	954706	960776	1	279	960107	3	2860	organic	correct	963658	1	280	962806	965075	1	280	962806	3	1838	966941	1	281	965507	foe_08236.png	foe_Tannenzapfen.png	foe_Adler.png	ok
60100	06/30/2021 15:33:23	1	38	209511	968773	1	282	968206	972106	1	283	970906	2	1533	organic	incorrect	973672	1	284	973607	976088	1	284	973607	3	235	976354	1	285	976306	979620	1	286	979006	2	2139	organic	correct	981786	1	287	981707	983468	1	287	981707	4	1039	984535	1	288	984406	foi_03389.png	foi_Apfelkuchen.png	foi_Pflanze.png	ok
60100	06/30/2021 15:33:41	1	39	209511	987417	1	289	987106	988983	1	289	987106	2	1337	inorganic	correct	990349	1	290	989807	992599	1	291	992506	4	292	992915	1	291	992506	996464	1	292	995206	2	543	inorganic	correct	997031	1	292	995206	1001146	1	294	1000606	4	248	1001429	1	294	1000606	maj_01545.png	maj_Krawatte.png	maj_Computermaus.png	ok
60100	06/30/2021 15:34:01	1	40	209511	1006294	1	296	1006006	1008327	1	296	1006006	2	1745	inorganic	correct	1010109	1	297	1008706	1013042	1	298	1011406	2	1230	1014308	1	299	1014106	1017124	1	300	1016806	3	1531	inorganic	correct	1018690	1	300	1016806	1021722	1	301	1019506	4	206	1021955	1	301	1019506	fai_07494.png	fai_Kommode.png	fai_Foehn.png	ok
60100	06/30/2021 15:34:23	1	41	209511	1026071	1	303	1024906	1029053	1	304	1027606	3	1450	organic	correct	1030536	1	305	1030306	1032535	1	305	1030306	2	332	1032902	1	305	1030306	1037867	1	307	1035706	3	2133	organic	correct	1040033	1	308	1038406	1043415	1	309	1041106	2	278	1043715	1	309	1041106	mol_07679.png	mol_Schimpanse.png	mol_Pizza.png	ok
60100	06/30/2021 15:34:43	1	42	209511	1048013	1	311	1046506	1050263	1	312	1049206	3	1917	organic	correct	1052212	1	313	1051906	1053645	1	313	1051906	2	1361	1055044	1	314	1054606	1058043	1	315	1057306	2	1726	organic	correct	1059809	1	315	1057306	1063125	1	317	1062706	4	479	1063641	1	317	1062706	mob_00760.png	mob_Igel.png	mob_Kiwi.png	ok
60100	06/30/2021 15:35:03	1	43	209511	1067457	1	318	1065406	1070589	1	319	1068106	2	385	inorganic	correct	1071006	1	320	1070806	1075321	1	321	1073506	4	731	1076087	1	321	1073506	1078720	1	322	1076206	3	1450	inorganic	correct	1080203	1	323	1078906	1083451	1	324	1081606	4	529	1084018	1	324	1081606	fab_06018.png	fab_Staubsauger.png	fab_Kinderwagen.png	ok
60100	06/30/2021 15:35:24	1	44	209511	1088117	1	326	1087006	1091382	1	327	1089706	3	1137	organic	correct	1092548	1	328	1092406	1096464	1	329	1095106	2	650	1097147	1	329	1095106	1100279	1	330	1097805	3	2216	organic	correct	1102528	1	331	1100506	1104011	1	332	1103206	3	429	1104494	1	332	1103206	moe_02012.png	moe_Waschbaer.png	moe_Pommes.png	ok
60100	06/30/2021 15:35:45	1	45	209511	1108960	1	334	1108606	1110676	1	334	1108606	3	1485	organic	correct	1112192	1	335	1111306	1115474	1	336	1114005	2	2166	1117673	1	337	1116706	1119573	1	338	1119406	3	2122	organic	incorrect	1121722	1	338	1119406	1125121	1	340	1124806	2	771	1125920	1	340	1124806	foa_00207.png	foa_Aubergine.png	foa_Marienkaefer.png	ok
60100	06/30/2021 15:36:06	1	46	209511	1130236	1	342	1130205	1132518	1	342	1130205	2	977	inorganic	correct	1133518	1	343	1132906	1137367	1	344	1135606	3	620	1138016	1	344	1135606	1141982	1	346	1141006	3	2193	inorganic	correct	1144198	1	347	1143705	1146514	1	348	1146405	4	382	1146930	1	348	1146405	map_41499.png	map_Pfeife.png	map_Globus.png	ok
60100	06/30/2021 15:36:26	1	47	209511	1150512	1	349	1149106	1153661	1	350	1151805	2	1298	inorganic	correct	1155011	1	351	1154505	1157293	1	352	1157206	3	604	1157943	1	352	1157206	1160942	1	353	1159905	3	2389	inorganic	correct	1163358	1	354	1162605	1165457	1	355	1165306	3	1419	1166907	1	355	1165306	mac_59169.png	mac_Medaille.png	mac_Dartpfeil.png	ok
60100	06/30/2021 15:36:48	1	48	209511	1170689	1	356	1168005	1173205	1	357	1170705	2	675	inorganic	correct	1173904	1	358	1173406	1178536	1	359	1176105	4	400	1178969	1	360	1178805	1183451	1	361	1181506	3	1234	inorganic	correct	1184717	1	362	1184205	1187866	1	363	1186905	4	816	1188716	1	363	1186905	fag_06539.png	fag_Geschenk.png	fag_Portemonnaie.png	ok
60100	06/30/2021 15:37:09	1	49	209511	1193131	1	365	1192305	1196230	1	366	1195005	2	1600	organic	incorrect	1197863	1	367	1197705	1201395	1	368	1200405	2	257	1201678	1	368	1200405	1206393	1	370	1205805	3	2050	organic	correct	1208493	1	370	1205805	1210692	1	371	1208505	4	813	1211542	1	372	1211205	mof_06901.png	mof_Spaghetti.png	mof_Hahn.png	ok
60100	06/30/2021 15:37:29	1	50	209511	1214107	1	373	1213905	1216707	1	374	1216605	3	1249	organic	correct	1217989	1	374	1216605	1221522	1	375	1219305	4	611	1222155	1	376	1222005	1224854	1	377	1224705	3	1465	organic	correct	1226353	1	377	1224705	1229619	1	378	1227405	4	487	1230135	1	379	1230105	moh_07125.png	moh_Birne.png	moh_Muecke.png	ok
60100	06/30/2021 15:37:49	1	51	209511	1234251	1	380	1232805	1237016	1	381	1235504	3	303	organic	correct	1237350	1	381	1235504	1240532	1	382	1238205	4	604	1241165	1	383	1240906	1243947	1	384	1243604	2	2373	organic	correct	1246347	1	385	1246305	1249312	1	386	1249005	4	1056	1250395	1	386	1249005	mom_59641.png	mom_Loewe.png	mom_Ei.png	ok
60100	06/30/2021 15:38:09	1	52	209511	1253861	1	387	1251704	1255993	1	388	1254405	2	699	inorganic	correct	1256743	1	388	1254405	1260342	1	390	1259804	4	312	1260692	1	390	1259804	1264141	1	391	1262505	2	691	inorganic	correct	1264857	1	391	1262505	1268423	1	393	1267904	4	741	1269189	1	393	1267904	fax_15310.png	fax_Klebeband.png	fax_Fahrrad.png	ok
60100	06/30/2021 15:38:28	1	53	209511	1273654	1	395	1273305	1276303	1	396	1276004	3	801	organic	correct	1277136	1	396	1276004	1280852	1	397	1278705	4	349	1281235	1	397	1278705	1284534	1	399	1284104	2	519	organic	correct	1285084	1	399	1284104	1288216	1	400	1286805	4	365	1288616	1	400	1286805	fok_09860.png	fok_Kaenguruh.png	fok_Palme.png	ok
60100	06/30/2021 15:38:49	1	54	209511	1293314	1	402	1292204	1295397	1	403	1294905	2	1595	inorganic	correct	1297030	1	403	1294905	1298829	1	404	1297604	4	458	1299312	1	404	1297604	1303944	1	406	1303005	2	705	inorganic	correct	1304694	1	406	1303005	1309492	1	408	1308404	4	348	1309875	1	408	1308404	fat_14140.png	fat_Kleiderbuegel.png	fat_Einkaufswagen.png	ok
60100	06/30/2021 15:39:09	1	55	209511	1314040	1	410	1313804	1317023	1	411	1316504	2	636	inorganic	correct	1317689	1	411	1316504	1320971	1	412	1319205	4	825	1321821	1	412	1319205	1324387	1	413	1321904	3	832	inorganic	correct	1325253	1	414	1324604	1328619	1	415	1327304	4	976	1329619	1	415	1327304	maw_22459.png	maw_Schlauchboot.png	maw_Pingpongschlaeger.png	ok
60100	06/30/2021 15:39:27	1	56	209511	1333384	1	417	1332704	1334950	1	417	1332704	2	940	inorganic	correct	1335916	1	418	1335404	1339848	1	419	1338104	4	255	1340132	1	419	1338104	1343581	1	421	1343504	3	1078	inorganic	correct	1344680	1	421	1343504	1347363	1	422	1346204	4	581	1347979	1	422	1346204	fap_17119.png	fap_Kissen.png	fap_Knopf.png	ok
60100	06/30/2021 15:39:48	1	57	209511	1351844	1	424	1351604	1355227	1	425	1354304	3	823	organic	correct	1356093	1	425	1354304	1360008	1	427	1359704	4	403	1360442	1	427	1359704	1364090	1	428	1362404	3	1085	organic	correct	1365207	1	429	1365104	1368389	1	430	1367804	4	592	1369005	1	430	1367804	mog_03277.png	mog_Pilz.png	mog_Fledermaus.png	ok
60100	06/30/2021 15:40:10	1	58	209511	1372554	1	431	1370504	1375553	1	432	1373203	3	1985	inorganic	incorrect	1377569	1	433	1375904	1379968	1	434	1378604	2	1432	1381434	1	435	1381303	1384483	1	436	1384004	2	1906	inorganic	correct	1386416	1	436	1384004	1389782	1	438	1389403	3	256	1390065	1	438	1389403	fal_07977.png	fal_Korb.png	fal_Buegeleisen.png	ok
60100	06/30/2021 15:40:28	1	59	209511	1394763	1	439	1392104	1396863	1	440	1394804	2	1822	organic	incorrect	1398712	1	441	1397503	1401378	1	442	1400204	0	0	1401378	1	443	1402904	1405426	1	443	1402904	2	2084	organic	correct	1407542	1	444	1405603	1409325	1	445	1408304	4	383	1409742	1	445	1408304	foj_08937.png	foj_Rose.png	foj_Waffel.png	ok
60100	06/30/2021 15:40:47	1	60	209511	1412841	1	446	1411003	1414673	1	447	1413703	3	1556	organic	correct	1416256	1	447	1413703	1418105	1	448	1416404	2	1155	1419288	1	449	1419103	1422821	1	450	1421803	3	1135	organic	correct	1423987	1	450	1421803	1427219	1	451	1424505	4	287	1427536	1	452	1427203	fou_18966.png	fou_Feige.png	fou_Schmetterling.png	ok
60100	06/30/2021 15:41:05	1	61	209511	1431568	1	453	1429903	1433900	1	454	1432605	2	682	inorganic	correct	1434617	1	454	1432605	1437649	1	455	1435304	4	492	1438165	1	456	1438003	1441098	1	457	1440705	2	1096	inorganic	correct	1442214	1	457	1440705	1444713	1	458	1443403	4	1475	1446213	1	459	1446103	mak_03979.png	mak_Rucksack.png	mak_Socken.png	ok
60100	06/30/2021 15:41:23	1	62	209511	1449378	1	460	1448805	1451261	1	460	1448805	3	1609	inorganic	incorrect	1452910	1	461	1451504	1455893	1	462	1454203	3	1204	1457126	1	463	1456904	1459342	1	463	1456904	2	2284	inorganic	incorrect	1461657	1	464	1459604	1463324	1	465	1462305	2	649	1464007	1	465	1462305	mao_19000.png	mao_Kegel.png	mao_Stempel.png	ok
60100	06/30/2021 15:41:42	1	63	209511	1467855	1	467	1467704	1470338	1	467	1467704	3	1503	organic	correct	1471871	1	468	1470405	1474020	1	469	1473104	3	1460	1475503	1	469	1473104	1478019	1	470	1475804	3	1694	organic	correct	1479735	1	471	1478505	1482167	1	472	1481204	4	297	1482500	1	472	1481204	foq_17341.png	foq_Pinguin.png	foq_Fenchel.png	ok
60100	06/30/2021 15:42:02	1	64	209511	1486616	1	473	1483904	1489481	1	475	1489304	2	1513	organic	incorrect	1491031	1	475	1489304	1494763	1	477	1494705	2	1382	1496179	1	477	1494705	1498528	1	478	1497404	2	2428	organic	correct	1500994	1	479	1500104	1502294	1	479	1500104	3	2053	1504393	1	480	1502804	fop_07937.png	fop_Mango.png	fop_Koala.png	ok
60100	06/30/2021 15:42:22	1	65	209511	1506359	1	481	1505504	1508225	1	481	1505504	3	1839	organic	correct	1510091	1	482	1508204	1512890	1	483	1510904	2	303	1513223	1	483	1510904	1517872	1	485	1516304	2	2172	organic	correct	1520071	1	486	1519004	1522754	1	487	1521704	4	658	1523437	1	487	1521704	mos_23223.png	mos_Traube.png	mos_Eintagsfliege.png	ok
60100	06/30/2021 15:42:42	1	66	209511	1526752	1	488	1524404	1528935	1	489	1527104	3	684	organic	correct	1529651	1	489	1527104	1534250	1	491	1532504	4	295	1534566	1	491	1532504	1538915	1	493	1537904	3	2317	organic	correct	1541264	1	494	1540604	1543080	1	494	1540604	4	516	1543630	1	495	1543304	foc_02664.png	foc_Eule.png	foc_Brombeere.png	ok
60100	06/30/2021 15:43:02	1	67	209511	1547112	1	496	1546004	1549195	1	497	1548703	3	738	organic	correct	1549978	1	497	1548703	1554293	1	499	1554104	4	503	1554826	1	499	1554104	1558092	1	500	1556803	2	815	organic	correct	1558941	1	500	1556803	1563157	1	502	1562204	4	272	1563457	1	502	1562204	fov_15193.png	fov_Fisch.png	fov_Zucchini.png	ok
60100	06/30/2021 15:43:22	1	68	209511	1567222	1	503	1564903	1570704	1	505	1570304	2	627	inorganic	correct	1571354	1	505	1570304	1574469	1	506	1573003	4	384	1574886	1	506	1573003	1578235	1	507	1575704	3	1123	inorganic	correct	1579385	1	508	1578404	1583133	1	509	1581103	4	272	1583433	1	509	1581103	fan_18894.png	fan_Lampe.png	fan_Klavier.png	ok
60100	06/30/2021 15:43:44	1	69	209511	1586699	1	511	1586504	1588848	1	511	1586504	3	538	inorganic	incorrect	1589414	1	512	1589203	1594063	1	513	1591904	3	975	1595063	1	514	1594603	1599344	1	515	1597303	2	365	inorganic	correct	1599761	1	515	1597303	1603960	1	517	1602703	4	826	1604809	1	517	1602703	mat_23754.png	mat_Helm.png	mat_Feuerzeug.png	ok
60100	06/30/2021 15:44:02	1	70	209511	1608591	1	519	1608104	1610591	1	519	1608104	2	722	inorganic	correct	1611340	1	520	1610803	1614106	1	521	1613503	4	590	1614723	1	521	1613503	1618571	1	522	1616204	2	1104	inorganic	correct	1619704	1	523	1618903	1623036	1	524	1621603	4	464	1623536	1	524	1621603	faj_07849.png	faj_Parfuem.png	faj_Schuh.png	ok
60100	06/30/2021 15:44:23	1	71	209511	1626469	1	525	1624304	1629884	1	527	1629703	2	587	inorganic	correct	1630501	1	527	1629703	1634866	1	528	1632404	4	649	1635549	1	529	1635103	1638981	1	530	1637803	3	805	inorganic	correct	1639814	1	530	1637803	1643863	1	532	1643203	4	299	1644196	1	532	1643203	far_06518.png	far_Giesskanne.png	far_Heissluftballon.png	ok
60100	06/30/2021 15:44:47	1	72	209511	1648128	1	533	1645903	1651494	1	535	1651303	2	1676	inorganic	correct	1653193	1	535	1651303	1656725	1	536	1654003	2	309	1657058	1	537	1656703	1661490	1	538	1659403	2	1889	inorganic	correct	1663406	1	539	1662103	1666888	1	540	1664803	4	758	1667671	1	541	1667503	faw_14685.png	faw_Hufeisen.png	faw_Kuechenmaschine.png	ok
60100	06/30/2021 15:45:07	1	73	209511	1671553	1	542	1670203	1674752	1	543	1672903	3	1099	organic	correct	1675885	1	544	1675603	1678768	1	545	1678302	3	851	1679651	1	545	1678302	1682833	1	546	1681003	2	729	organic	correct	1683583	1	546	1681003	1687965	1	548	1686402	4	511	1688498	1	548	1686402	mot_69770.png	mot_Hotdog.png	mot_Bison.png	ok
60100	06/30/2021 15:45:26	1	74	209511	1691813	1	549	1689103	1693446	1	550	1691803	2	688	inorganic	correct	1694163	1	550	1691803	1697178	1	551	1694502	4	296	1697528	1	552	1697203	1701743	1	553	1699903	2	672	inorganic	correct	1702460	1	553	1699903	1705809	1	555	1705303	4	453	1706292	1	555	1705303	mal_20552.png	mal_Drucker.png	mal_Kugelschreiber.png	ok
60100	06/30/2021 15:45:47	1	75	209511	1710724	1	557	1710702	1714106	1	558	1713403	3	741	organic	correct	1714872	1	558	1713403	1719237	1	560	1718802	4	239	1719504	1	560	1718802	1723553	1	561	1721503	2	779	organic	correct	1724352	1	562	1724203	1728218	1	563	1726902	4	373	1728618	1	563	1726902	fot_06092.png	fot_Taube.png	fot_Salat.png	ok
60100	06/30/2021 15:46:07	1	76	209511	1732066	1	564	1729603	1734532	1	565	1732302	3	2009	inorganic	incorrect	1736565	1	566	1735002	1738481	1	567	1737703	2	437	1738947	1	567	1737703	1742180	1	568	1740402	3	1820	inorganic	correct	1744029	1	569	1743102	1746845	1	570	1745803	4	291	1747178	1	570	1745803	mau_58144.png	mau_Wasserventil.png	mau_Leiter.png	ok
60100	06/30/2021 15:46:25	1	77	209511	1751527	1	572	1751202	1753493	1	572	1751202	3	1196	organic	correct	1754725	1	573	1753903	1756841	1	574	1756602	3	265	1757141	1	574	1756602	1761340	1	575	1759302	3	1643	organic	correct	1763006	1	576	1762003	1766288	1	577	1764702	3	276	1766588	1	577	1764702	mon_69587.png	mon_Fuchs.png	mon_Kartoffel.png	ok
60100	06/30/2021 15:46:45	1	78	209511	1770254	1	579	1770103	1772536	1	579	1770103	3	248	organic	correct	1772819	1	579	1770103	1776618	1	581	1775502	3	214	1776868	1	581	1775502	1781483	1	583	1780902	3	1644	organic	correct	1783149	1	583	1780902	1785948	1	584	1783602	4	342	1786315	1	584	1783602	for_15880.png	for_Mandel.png	for_Seehund.png	ok
60100	06/30/2021 15:47:05	1	79	209511	1790030	1	586	1789002	1791630	1	586	1789002	2	580	inorganic	correct	1792246	1	587	1791702	1795895	1	588	1794402	4	463	1796411	1	588	1794402	1800044	1	590	1799802	3	742	inorganic	correct	1800827	1	590	1799802	1805558	1	592	1805202	4	586	1806175	1	592	1805202	mae_36426.png	mae_Schach.png	mae_Taschenrechner.png	ok
60100	06/30/2021 15:47:25	1	80	209511	1809990	1	593	1807902	1811923	1	594	1810602	3	1550	inorganic	incorrect	1813506	1	595	1813302	1816621	1	596	1816002	3	217	1816871	1	596	1816002	1821536	1	598	1821402	2	1978	inorganic	correct	1823536	1	598	1821402	1825952	1	599	1824101	4	360	1826335	1	599	1824101	fac_02970.png	fac_Ohrring.png	fac_Haarbuerste.png	ok
60100	06/30/2021 15:47:44	1	81	209511	1830000	1	601	1829502	1832716	1	602	1832201	2	280	inorganic	correct	1833032	1	602	1832201	1837714	1	604	1837602	4	243	1837981	1	604	1837602	1841146	1	605	1840302	3	982	inorganic	correct	1842163	1	605	1840302	1845045	1	606	1843002	4	430	1845528	1	606	1843002	mai_23761.png	mai_Gewehr.png	mai_Auto.png	ok
60100	06/30/2021 15:48:03	1	82	209511	1848627	1	608	1848402	1850876	1	608	1848402	2	1695	organic	incorrect	1852609	1	609	1851102	1855492	1	610	1853802	3	658	1856175	1	610	1853802	1860423	1	612	1859202	2	2277	organic	correct	1862722	1	613	1861901	1864105	1	613	1861901	4	399	1864539	1	613	1861901	moj_11860.png	moj_Walnuss.png	moj_Blatt.png	ok
60100	06/30/2021 15:48:22	1	83	209511	1868254	1	615	1867302	1870237	1	616	1870001	2	1717	inorganic	correct	1871986	1	616	1870001	1874185	1	617	1872702	2	559	1874768	1	617	1872702	1878584	1	619	1878101	2	1533	inorganic	correct	1880150	1	619	1878101	1882499	1	620	1880801	4	445	1882982	1	620	1880801	mas_41937.png	mas_Bueroklammer.png	mas_Tisch.png	ok
60100	06/30/2021 15:48:40	1	84	209511	1887081	1	622	1886201	1888947	1	623	1888902	3	782	organic	correct	1889763	1	623	1888902	1892496	1	624	1891602	4	316	1892862	1	624	1891602	1896461	1	625	1894301	3	716	organic	correct	1897228	1	626	1897002	1900526	1	627	1899702	4	463	1901026	1	627	1899702	mou_06524.png	mou_Kraehe.png	mou_Croissant.png	ok
60100	06/30/2021 15:49:00	1	85	209511	1904492	1	628	1902401	1906791	1	629	1905102	3	589	organic	correct	1907407	1	629	1905102	1911006	1	631	1910501	4	514	1911556	1	631	1910501	1915072	1	632	1913202	2	1219	organic	correct	1916321	1	633	1915901	1920186	1	634	1918601	4	371	1920586	1	634	1918601	foe_08514.png	foe_Adler.png	foe_Tannenzapfen.png	ok
60100	06/30/2021 15:49:18	1	86	209511	1925268	1	636	1924001	1927267	1	637	1926701	2	1471	inorganic	correct	1928767	1	637	1926701	1931799	1	638	1929402	2	620	1932449	1	639	1932101	1935215	1	640	1934801	2	1900	inorganic	correct	1937147	1	640	1934801	1939263	1	641	1937502	4	341	1939630	1	641	1937502	fai_07637.png	fai_Foehn.png	fai_Kommode.png	ok
60100	06/30/2021 15:49:37	1	87	209511	1943129	1	643	1942901	1946294	1	644	1945602	3	1907	organic	correct	1948244	1	644	1945602	1951076	1	646	1951001	2	444	1951543	1	646	1951001	1954625	1	647	1953701	2	2307	organic	incorrect	1956957	1	648	1956401	1958324	1	648	1956401	2	755	1959107	1	648	1956401	foi_05187.png	foi_Pflanze.png	foi_Apfelkuchen.png	ok
60100	06/30/2021 15:49:58	1	88	209511	1961656	1	649	1959101	1964255	1	650	1961801	3	566	inorganic	incorrect	1964855	1	651	1964501	1968570	1	652	1967201	2	262	1968853	1	652	1967201	1972969	1	654	1972601	2	1739	inorganic	correct	1974735	1	654	1972601	1978100	1	656	1978001	4	357	1978484	1	656	1978001	maj_01546.png	maj_Computermaus.png	maj_Krawatte.png	ok
60100	06/30/2021 15:50:19	1	89	209511	1983082	1	657	1980701	1985814	1	658	1983401	3	516	organic	correct	1986364	1	659	1986101	1991063	1	660	1988801	4	310	1991396	1	660	1988801	1994845	1	662	1994201	2	876	organic	correct	1995761	1	662	1994201	1999960	1	664	1999600	4	240	2000226	1	664	1999600	moe_23630.png	moe_Pommes.png	moe_Waschbaer.png	ok
60100	06/30/2021 15:50:40	1	90	209511	2004192	1	665	2002301	2006957	1	666	2005001	2	1956	organic	incorrect	2008940	1	667	2007700	2012172	1	668	2010401	2	292	2012489	1	668	2010401	2016837	1	670	2015800	3	2440	organic	incorrect	2019303	1	671	2018501	2021619	1	672	2021201	2	298	2021952	1	672	2021201	mol_11363.png	mol_Pizza.png	mol_Schimpanse.png	ok
60100	06/30/2021 15:51:01	1	91	209511	2025084	1	673	2023900	2028283	1	674	2026601	2	1785	inorganic	correct	2030099	1	675	2029301	2033582	1	676	2032000	2	387	2033998	1	676	2032000	2037197	1	677	2034701	3	1911	inorganic	correct	2039130	1	678	2037401	2041246	1	679	2040100	4	458	2041746	1	679	2040100	fab_06286.png	fab_Kinderwagen.png	fab_Staubsauger.png	ok
60100	06/30/2021 15:51:22	1	92	209511	2045661	1	681	2045500	2048743	1	682	2048200	3	1479	organic	correct	2050259	1	682	2048200	2053742	1	684	2053600	3	271	2054041	1	684	2053600	2058440	1	685	2056300	2	1787	organic	correct	2060256	1	686	2059001	2062055	1	687	2061700	4	383	2062472	1	687	2061700	mob_22833.png	mob_Kiwi.png	mob_Igel.png	ok
60100	06/30/2021 15:51:46	1	93	209511	2066904	1	688	2064400	2070169	1	690	2069800	3	744	inorganic	incorrect	2070936	1	690	2069800	2074868	1	691	2072500	2	2119	2077017	1	692	2075201	2080033	1	693	2077900	2	1895	inorganic	correct	2081949	1	694	2080600	2085181	1	695	2083300	3	524	2085731	1	695	2083300	map_49576.png	map_Globus.png	map_Pfeife.png	ok
60100	06/30/2021 15:52:06	1	94	209511	2090363	1	697	2088700	2092279	1	698	2091400	3	2313	organic	correct	2094644	1	699	2094100	2097493	1	700	2096800	2	834	2098360	1	700	2096800	2102042	1	701	2099500	3	1970	organic	incorrect	2104041	1	702	2102200	2107290	1	703	2104900	3	1216	2108540	1	704	2107600	foa_00426.png	foa_Marienkaefer.png	foa_Aubergine.png	ok
60100	06/30/2021 15:52:26	1	95	209511	2110889	1	705	2110300	2113072	1	706	2113000	2	774	inorganic	correct	2113871	1	706	2113000	2117853	1	707	2115700	4	454	2118336	1	707	2115700	2121685	1	709	2121100	2	1382	inorganic	correct	2123101	1	709	2121100	2126850	1	711	2126501	4	360	2127233	1	711	2126501	fag_06551.png	fag_Portemonnaie.png	fag_Geschenk.png	ok
60100	06/30/2021 15:52:47	1	96	209511	2130332	1	712	2129200	2132798	1	713	2131901	2	621	inorganic	correct	2133448	1	713	2131901	2137280	1	714	2134600	4	735	2138046	1	715	2137299	2142428	1	716	2140001	2	928	inorganic	correct	2143395	1	717	2142700	2146844	1	718	2145400	4	741	2147610	1	718	2145400	mac_59752.png	mac_Dartpfeil.png	mac_Medaille.png	ok
