ID	DateTime	Run	Delayed_Retrieval_Trial	First_Pulse_Time	FaceRecog_OnsetTime	FaceRecog_OnsetTimeUncertainty	FaceRecog_fMRI_Pulse	FaceRecog_fMRI_PulseTime	Assoc_Retrieval_OnsetTime	Assoc_Retrieval_OnsetTimeUncertainty	Assoc_Retrieval_fMRI_Pulse	Assoc_Retrieval_fMRI_PulseTime	Assoc_Retrieval_Pressed_Button	Assoc_Retrieval_RT	Assoc_Retrieval_Response_Category	Assoc_Retrieval_Accuracy	Assoc_Retrieval_Feedback_OnsetTime	Assoc_Retrieval_Feedback_OnsetTimeUncertainty	Assoc_Retrieval_Feedback_fMRI_Pulse	Assoc_Retrieval_Feedback_fMRI_PulseTime	Retrieval_consc_Rating_OnsetTime	Retrieval_consc_Rating_OnsetTimeUncertainty	Retrieval_consc_Rating_fMRI_Pulse	Retrieval_consc_Rating_fMRI_PulseTime	Retrieval_consc_Rating_Pressed_Button	Retrieval_consc_Rating_RT	Retrieval_consc_Rating_Feedback_OnsetTime	Retrieval_consc_Rating_Feedback_OnsetTimeUncertainty	Retrieval_consc_Rating_Feedback_fMRI_Pulse	Retrieval_consc_Rating_Feedback_fMRI_PulseTime	ForcedChoice_OnsetTime	ForcedChoice_OnsetTimeUncertainty	ForcedChoice_fMRI_Pulse	ForcedChoice_fMRI_PulseTime	ForcedChoice_Pressed_Button	ForcedChoice_RT	ForcedChoice_Response_Category	ForcedChoice_Accuracy	ForcedChoice_Feedback_OnsetTime	ForcedChoice_Feedback_OnsetTimeUncertainty	ForcedChoice_Feedback_fMRI_Pulse	ForcedChoice_Feedback_fMRI_PulseTime	Recognition_consc_Rating_OnsetTime	Recognition_consc_Rating_OnsetTimeUncertainty	Recognition_consc_Rating_fMRI_Pulse	Recognition_consc_Rating_fMRI_PulseTime	Recognition_consc_Rating_Pressed_Button	Recognition_consc_Rating_RT	Recognition_consc_Rating_Feedback_OnsetTime	Recognition_consc_Rating_Feedback_OnsetTimeUncertainty	Recognition_consc_Rating_Feedback_fMRI_Pulse	Recognition_consc_Rating_Feedback_fMRI_PulseTime	Presented_Person	Presented_Target	Presented_Lure	TrialStatus
60601	09/08/2021 14:15:50	1	1	74479	86587	1	6	85075	88303	1	7	87198	2	1180	organic	incorrect	89519	1	8	89318	93318	1	9	91438	2	423	93768	1	10	93558	98250	1	12	97799	3	1512	organic	correct	99782	1	12	97799	102448	1	14	102038	4	493	102965	1	14	102038	foc_02157.png	foc_Eule.png	foc_Brombeere.png	ok
60601	09/08/2021 14:16:11	1	2	74479	106830	1	16	106279	110179	1	17	108398	2	731	organic	incorrect	110945	1	18	110518	114477	1	19	112638	2	448	114961	1	20	114758	119559	1	22	118998	3	1184	organic	correct	120792	1	22	118998	124541	1	24	123238	4	307	124874	1	24	123238	mou_01862.png	mou_Kraehe.png	mou_Croissant.png	ok
60601	09/08/2021 14:16:30	1	3	74479	128106	1	26	127478	130005	1	27	129598	3	566	organic	correct	130605	1	27	129598	133738	1	28	131718	2	465	134237	1	29	133838	137303	1	30	135958	3	1413	organic	correct	138736	1	31	138078	142651	1	33	142318	2	1437	144117	1	33	142318	foi_03389.png	foi_Pflanze.png	foi_Apfelkuchen.png	ok
60601	09/08/2021 14:16:47	1	4	74479	146833	1	35	146558	149782	1	36	148678	2	488	inorganic	correct	150299	1	36	148678	153114	1	38	152918	2	1180	154331	1	38	152918	156663	1	39	155038	3	1632	inorganic	correct	158329	1	40	157158	160778	1	41	159278	4	468	161278	1	41	159278	far_00736.png	far_Heissluftballon.png	far_Giesskanne.png	ok
60601	09/08/2021 14:17:07	1	5	74479	164144	1	43	163518	166960	1	44	165638	3	275	organic	correct	167260	1	44	165638	171591	1	46	169877	4	273	171908	1	46	169877	176290	1	49	176237	3	637	organic	correct	176956	1	49	176237	180255	1	50	178357	4	339	180622	1	51	180478	mom_59361.png	mom_Ei.png	mom_Loewe.png	ok
60601	09/08/2021 14:17:28	1	6	74479	183937	1	52	182598	185687	1	53	184717	2	825	inorganic	correct	186536	1	53	184717	190302	1	55	188958	3	199	190535	1	55	188958	195400	1	58	195318	2	1264	inorganic	correct	196700	1	58	195318	200498	1	60	199557	4	609	201131	1	60	199557	fac_02146.png	fac_Ohrring.png	fac_Haarbuerste.png	ok
60601	09/08/2021 14:17:47	1	7	74479	205380	1	62	203798	207812	1	63	205918	3	716	organic	correct	208562	1	64	208037	212827	1	66	212278	2	259	213111	1	66	212278	216343	1	67	214398	3	1993	organic	incorrect	218376	1	68	216517	220558	1	69	218637	2	289	220891	1	70	220758	mot_69374.png	mot_Hotdog.png	mot_Bison.png	ok
60601	09/08/2021 14:18:06	1	8	74479	223956	6	71	222877	227106	1	72	224997	2	285	inorganic	correct	227422	1	73	227117	230721	1	74	229238	4	400	231155	1	74	229238	234553	1	76	233477	3	751	inorganic	correct	235336	1	76	233477	239885	1	79	239837	4	341	240251	1	79	239837	mac_59169.png	mac_Medaille.png	mac_Dartpfeil.png	ok
60601	09/08/2021 14:18:26	1	9	74479	243484	1	80	241957	246166	1	81	244078	3	274	organic	correct	246466	1	82	246197	250031	1	83	248317	2	197	250265	1	83	248317	253730	1	85	252558	2	2207	organic	correct	255963	1	86	254677	258962	1	88	258917	2	207	259195	1	88	258917	moh_06446.png	moh_Muecke.png	moh_Birne.png	ok
60601	09/08/2021 14:18:43	1	10	74479	263294	1	90	263157	265193	1	90	263157	2	1189	organic	incorrect	266409	1	91	265277	269058	1	92	267397	3	284	269392	1	92	267397	272424	1	94	271637	2	2534	organic	correct	274990	1	95	273757	276223	1	96	275877	2	1461	277722	1	96	275877	mog_03090.png	mog_Fledermaus.png	mog_Pilz.png	ok
60601	09/08/2021 14:19:05	1	11	74479	279871	1	97	277997	282287	1	99	282237	3	1096	organic	correct	283420	1	99	282237	287452	1	101	286477	2	253	287735	1	101	286477	291517	1	103	290717	2	2073	organic	correct	293617	1	104	292837	297049	1	105	294957	4	265	297349	1	106	297077	fop_00621.png	fop_Koala.png	fop_Mango.png	ok
60601	09/08/2021 14:19:26	1	12	74479	301897	1	108	301317	304263	1	109	303437	2	1363	organic	incorrect	305663	1	110	305557	309445	1	111	307676	2	363	309845	1	112	309797	314260	1	114	314037	2	2214	organic	correct	316526	1	115	316156	318325	1	116	318277	2	346	318725	1	116	318277	fok_09378.png	fok_Palme.png	fok_Kaenguruh.png	ok
60601	09/08/2021 14:19:44	1	13	74479	323523	1	118	322516	325523	1	119	324636	2	1225	inorganic	correct	326772	1	119	324636	329138	1	121	328877	2	338	329505	1	121	328877	333786	1	123	333116	3	1472	inorganic	correct	335286	1	124	335237	337868	1	125	337357	4	367	338268	1	125	337357	fat_12032.png	fat_Einkaufswagen.png	fat_Kleiderbuegel.png	ok
60601	09/08/2021 14:20:06	1	14	74479	341434	1	126	339476	344649	1	128	343717	2	276	inorganic	correct	344949	1	128	343717	348048	1	130	347956	4	1127	349198	1	130	347956	353313	1	132	352197	2	540	inorganic	correct	353880	1	132	352197	357495	1	134	356436	4	631	358162	1	134	356436	mat_23275.png	mat_Helm.png	mat_Feuerzeug.png	ok
60601	09/08/2021 14:20:28	1	15	74479	362727	1	136	360677	365592	1	138	364916	2	741	organic	incorrect	366375	1	138	364916	370674	1	140	369156	3	274	370974	1	140	369156	374873	1	142	373396	2	2152	organic	correct	377055	1	143	375517	379838	1	145	379756	4	953	380821	1	145	379756	moj_11821.png	moj_Walnuss.png	moj_Blatt.png	ok
60601	09/08/2021 14:20:47	1	16	74479	384803	1	147	383996	387385	1	148	386116	2	910	inorganic	correct	388318	1	149	388236	391500	1	150	390357	3	323	391850	1	150	390357	395132	1	152	394596	2	2000	inorganic	correct	397165	1	153	396716	399064	1	154	398837	4	816	399914	1	154	398837	fap_16329.png	fap_Knopf.png	fap_Kissen.png	ok
60601	09/08/2021 14:21:06	1	17	74479	403796	1	156	403076	405745	1	157	405196	3	922	inorganic	incorrect	406695	1	157	405196	409211	1	158	407316	2	710	409944	1	159	409436	414426	1	161	413676	2	2009	inorganic	correct	416475	6	162	415796	419457	1	163	417916	3	239	419724	1	163	417916	mak_00987.png	mak_Rucksack.png	mak_Socken.png	ok
60601	09/08/2021 14:21:25	1	18	74479	423473	1	165	422156	425106	1	166	424276	2	381	organic	incorrect	425522	1	166	424276	428538	1	167	426396	2	283	428854	1	168	428516	432320	1	169	430636	3	2698	organic	correct	435052	1	171	434876	437318	1	172	436996	2	270	437618	1	172	436996	fov_15046.png	fov_Fisch.png	fov_Zucchini.png	ok
60601	09/08/2021 14:21:45	1	19	74479	442166	1	174	441236	444416	1	175	443356	2	883	inorganic	correct	445332	1	175	443356	448564	1	177	447596	4	503	449097	1	177	447596	453646	1	179	451836	3	1972	inorganic	correct	455645	1	180	453955	457445	1	181	456076	4	1346	458827	1	182	458196	maj_01545.png	maj_Computermaus.png	maj_Krawatte.png	ok
60601	09/08/2021 14:22:04	1	20	74479	461910	1	183	460316	464542	1	184	462435	3	266	organic	correct	464859	1	185	464556	469257	1	187	468796	4	349	469640	1	187	468796	473139	1	189	473036	2	540	organic	correct	473706	1	189	473036	477721	1	191	477275	4	290	478038	1	191	477275	for_15187.png	for_Mandel.png	for_Seehund.png	ok
60601	09/08/2021 14:22:25	1	21	74479	481337	1	192	479396	484419	1	194	483636	3	1027	organic	correct	485468	1	194	483636	488201	1	196	487876	2	739	488967	1	196	487876	492000	1	197	489996	3	2062	organic	correct	494082	1	198	492115	497098	1	200	496356	2	334	497464	1	200	496356	mob_00760.png	mob_Kiwi.png	mob_Igel.png	ok
60601	09/08/2021 14:22:43	1	22	74479	501596	1	202	500595	504229	1	203	502715	3	339	inorganic	incorrect	504595	1	203	502715	508994	1	205	506956	2	287	509310	1	206	509075	512326	1	207	511195	3	2072	inorganic	incorrect	514442	1	208	513316	516358	1	209	515435	2	300	516708	1	209	515435	mae_01010.png	mae_Taschenrechner.png	mae_Schach.png	ok
60601	09/08/2021 14:23:05	1	23	74479	520273	1	211	519675	522839	1	212	521796	3	437	inorganic	incorrect	523306	1	212	521796	526738	1	214	526035	2	302	527071	1	214	526035	531470	1	216	530276	2	2069	inorganic	correct	533569	1	217	532395	536351	1	218	534515	2	414	536801	1	219	536636	faw_14215.png	faw_Kuechenmaschine.png	faw_Hufeisen.png	ok
60601	09/08/2021 14:23:25	1	24	74479	541683	1	221	540875	543366	1	222	542995	3	362	organic	correct	543765	1	222	542995	547781	1	224	547235	4	628	548430	1	224	547235	552479	1	226	551475	2	490	organic	correct	552996	1	226	551475	557627	1	228	555715	4	554	558210	1	229	557835	fou_17118.png	fou_Schmetterling.png	fou_Feige.png	ok
60601	09/08/2021 14:23:49	1	25	74479	562542	1	231	562075	565908	1	232	564195	2	238	organic	incorrect	566191	1	232	564195	571089	1	235	570555	4	303	571423	1	235	570555	575555	1	237	574795	3	1725	organic	incorrect	577304	1	238	576915	581019	1	239	579035	2	321	581369	1	240	581155	mol_07679.png	mol_Schimpanse.png	mol_Pizza.png	ok
60601	09/08/2021 14:24:08	1	26	74479	586301	1	242	585395	589167	1	243	587515	2	736	organic	incorrect	589933	1	244	589635	592932	1	245	591755	2	562	593532	1	245	591755	597364	1	247	595995	3	1323	organic	correct	598713	1	248	598115	601646	1	249	600234	4	403	602079	1	249	600234	foj_08220.png	foj_Rose.png	foj_Waffel.png	ok
60601	09/08/2021 14:24:28	1	27	74479	605461	1	251	604475	607277	1	252	606595	2	1676	inorganic	correct	608977	1	253	608714	612425	1	254	610835	2	300	612775	1	254	610835	615924	1	256	615074	2	1328	inorganic	correct	617274	1	257	617194	619873	1	258	619315	4	937	620839	1	258	619315	fai_07494.png	fai_Foehn.png	fai_Kommode.png	ok
60601	09/08/2021 14:24:47	1	28	74479	624671	1	260	623554	627670	1	261	625675	2	256	inorganic	correct	627954	1	262	627795	631619	1	263	629915	2	477	632119	1	264	632034	636284	1	265	634155	3	2091	inorganic	incorrect	638400	1	266	636275	640333	1	267	638394	2	764	641132	1	268	640514	mal_04470.png	mal_Drucker.png	mal_Kugelschreiber.png	ok
60601	09/08/2021 14:25:08	1	29	74479	644331	1	269	642635	646531	1	270	644755	2	741	inorganic	correct	647297	1	271	646874	650196	1	272	648994	2	595	650812	1	272	648994	655428	1	275	655354	2	2226	inorganic	correct	657677	1	276	657474	660126	1	277	659595	2	623	660776	1	277	659595	mao_11634.png	mao_Kegel.png	mao_Stempel.png	ok
60601	09/08/2021 14:25:26	1	30	74479	665208	1	279	663834	667007	1	280	665954	3	370	inorganic	incorrect	667407	1	280	665954	670556	1	282	670194	2	555	671139	1	282	670194	674621	1	284	674435	2	2098	inorganic	correct	676754	1	285	676555	679153	1	286	678674	2	276	679453	1	286	678674	fal_07906.png	fal_Buegeleisen.png	fal_Korb.png	ok
60601	09/08/2021 14:25:49	1	31	74479	682902	1	287	680794	685984	1	289	685034	2	1075	organic	incorrect	687084	1	289	685034	690716	1	291	689274	3	436	691182	1	291	689274	695647	1	293	693514	3	1975	organic	correct	697647	1	294	695634	701112	1	296	699874	3	285	701429	1	296	699874	mon_65798.png	mon_Kartoffel.png	mon_Fuchs.png	ok
60601	09/08/2021 14:26:09	1	32	74479	706327	1	299	706234	709493	1	300	708354	3	1148	inorganic	incorrect	710676	1	301	710474	714208	1	302	712594	2	205	714458	1	302	712594	717640	1	304	716834	2	2560	inorganic	incorrect	720222	1	305	718954	721489	1	306	721074	2	862	722388	1	306	721074	mai_06530.png	mai_Auto.png	mai_Gewehr.png	ok
60601	09/08/2021 14:26:27	1	33	74479	725987	1	308	725314	729036	1	309	727434	2	244	inorganic	correct	729303	1	309	727434	732801	1	311	731674	2	562	733401	1	311	731674	736767	1	313	735914	2	1990	inorganic	incorrect	738783	1	314	738034	741065	1	315	740154	2	161	741249	1	315	740154	fax_14883.png	fax_Fahrrad.png	fax_Klebeband.png	ok
60601	09/08/2021 14:26:48	1	34	74479	744531	1	317	744394	746497	1	317	744394	2	1033	organic	incorrect	747563	1	318	746514	751195	1	320	750754	2	319	751545	1	320	750754	755577	1	322	754994	2	849	organic	correct	756460	1	322	754994	761042	1	324	759234	4	334	761425	1	325	761353	moe_02012.png	moe_Pommes.png	moe_Waschbaer.png	ok
60601	09/08/2021 14:27:08	1	35	74479	764741	1	326	763474	768289	1	328	767714	3	284	inorganic	incorrect	768606	1	328	767714	772055	1	330	771954	2	271	772355	1	330	771954	776153	1	331	774074	3	2447	inorganic	correct	778636	1	333	778313	780085	1	333	778313	2	796	780918	1	334	780434	mas_41366.png	mas_Bueroklammer.png	mas_Tisch.png	ok
60601	09/08/2021 14:27:29	1	36	74479	785050	1	336	784673	787483	1	337	786793	3	764	inorganic	incorrect	788283	1	337	786793	792148	1	339	791034	2	306	792481	1	339	791034	797163	1	341	795273	3	1587	inorganic	correct	798779	1	342	797394	801561	1	343	799514	3	293	801878	1	344	801633	maw_04767.png	maw_Pingpongschlaeger.png	maw_Schlauchboot.png	ok
60601	09/08/2021 14:27:48	1	37	74479	805777	1	345	803754	807493	1	346	805874	3	411	organic	correct	807926	1	346	805874	812724	1	349	812234	2	1190	813941	1	349	812234	817056	1	351	816473	3	2383	organic	correct	819472	1	352	818593	821355	1	353	820714	2	797	822188	1	353	820714	foe_08236.png	foe_Adler.png	foe_Tannenzapfen.png	ok
60601	09/08/2021 14:28:10	1	38	74479	825403	1	355	824953	827286	1	356	827073	2	1132	inorganic	correct	828452	1	356	827073	832518	1	358	831313	2	733	833284	1	358	831313	836333	1	360	835553	3	2109	inorganic	correct	838466	1	361	837674	841598	1	362	839793	2	197	841831	1	362	839793	fab_06018.png	fab_Staubsauger.png	fab_Kinderwagen.png	ok
60601	09/08/2021 14:28:29	1	39	74479	846663	1	365	846153	848962	1	366	848273	2	292	organic	incorrect	849279	1	366	848273	853994	1	368	852514	3	239	854260	1	368	852514	858742	1	370	856753	2	601	organic	correct	859392	1	371	858873	862474	1	372	860994	4	643	863157	1	373	863113	mof_02408.png	mof_Spaghetti.png	mof_Hahn.png	ok
60601	09/08/2021 14:28:49	1	40	74479	866356	1	374	865233	868405	1	375	867353	3	262	organic	correct	868689	1	375	867353	873470	1	377	871593	4	261	873754	1	378	873713	877269	1	379	875833	2	566	organic	correct	877869	1	379	875833	882617	1	382	882193	4	352	883001	1	382	882193	mos_20953.png	mos_Traube.png	mos_Eintagsfliege.png	ok
60601	09/08/2021 14:29:08	1	41	74479	886016	1	383	884312	887782	1	384	886433	3	573	inorganic	incorrect	888382	1	384	886433	891614	1	386	890673	3	246	891898	1	386	890673	895380	1	388	894913	3	2116	inorganic	correct	897529	1	389	897033	900611	1	390	899153	2	220	900861	1	390	899153	mau_49693.png	mau_Leiter.png	mau_Wasserventil.png	ok
60601	09/08/2021 14:29:27	1	42	74479	904677	1	392	903393	908042	1	394	907632	2	903	inorganic	correct	908992	1	394	907632	911724	1	395	909753	3	539	912307	1	396	911873	916806	1	398	916112	2	1007	inorganic	correct	917839	1	398	916112	920788	1	400	920353	2	1148	921971	1	400	920353	fag_06539.png	fag_Geschenk.png	fag_Portemonnaie.png	ok
60601	09/08/2021 14:29:48	1	43	74479	924470	1	401	922473	926286	1	402	924592	2	370	inorganic	correct	926686	1	402	924592	930701	1	404	928833	4	301	931034	1	405	930952	935183	1	406	933072	2	436	inorganic	correct	935649	1	407	935193	940065	1	409	939432	4	287	940381	1	409	939432	faj_07783.png	faj_Schuh.png	faj_Parfuem.png	ok
60601	09/08/2021 14:30:05	1	44	74479	944980	1	411	943673	947362	1	412	945792	3	393	organic	correct	947779	1	412	945792	950911	1	414	950033	2	406	951344	1	414	950033	954810	1	416	954272	2	531	organic	correct	955376	1	416	954272	958442	1	417	956392	4	326	958808	1	418	958513	fot_00797.png	fot_Salat.png	fot_Taube.png	ok
60601	09/08/2021 14:30:26	1	45	74479	962507	1	419	960633	965872	1	421	964872	2	253	inorganic	correct	966156	1	421	964872	970421	1	423	969112	2	297	970754	1	423	969112	974386	1	425	973352	3	2340	inorganic	correct	976752	1	426	975473	978485	1	427	977592	2	319	978835	1	427	977592	fan_17286.png	fan_Klavier.png	fan_Lampe.png	ok
60601	09/08/2021 14:30:47	1	46	74479	983150	1	429	981832	986249	1	431	986072	3	251	organic	correct	986532	1	431	986072	990647	1	433	990313	2	224	990897	1	433	990313	994829	1	435	994552	3	471	organic	correct	995329	1	435	994552	998711	1	436	996672	4	309	999045	1	437	998793	foa_00207.png	foa_Marienkaefer.png	foa_Aubergine.png	ok
60601	09/08/2021 14:31:08	1	47	74479	1003810	1	439	1003032	1006692	1	440	1005152	2	1139	inorganic	correct	1007875	1	441	1007272	1011457	1	442	1009392	3	325	1011807	1	443	1011512	1016372	1	445	1015752	3	1200	inorganic	correct	1017605	1	445	1015752	1021054	1	447	1019992	4	323	1021404	1	447	1019992	map_41499.png	map_Pfeife.png	map_Globus.png	ok
60601	09/08/2021 14:31:30	1	48	74479	1024869	1	449	1024232	1028001	1	450	1026352	2	861	organic	incorrect	1028884	1	451	1028472	1033083	1	453	1032712	2	373	1033483	1	453	1032712	1037082	1	455	1036952	3	1977	organic	incorrect	1039081	1	455	1036952	1042347	1	457	1041192	2	218	1042597	1	457	1041192	foq_16799.png	foq_Fenchel.png	foq_Pinguin.png	ok
60601	09/08/2021 14:31:49	1	49	74479	1047045	1	459	1045431	1049827	1	461	1049672	2	271	inorganic	correct	1050127	1	461	1049672	1053909	1	462	1051792	4	360	1054293	1	463	1053911	1058858	1	465	1058152	3	580	inorganic	correct	1059474	1	465	1058152	1062740	1	467	1062391	4	361	1063123	1	467	1062391	far_06518.png	far_Giesskanne.png	far_Heissluftballon.png	ok
60601	09/08/2021 14:32:10	1	50	74479	1066372	1	468	1064512	1068205	1	469	1066632	2	404	organic	incorrect	1068638	1	469	1066632	1073303	1	472	1072992	3	271	1073603	1	472	1072992	1078368	1	474	1077231	3	733	organic	correct	1079134	1	474	1077231	1082750	1	476	1081472	4	595	1083366	1	476	1081472	mou_06524.png	mou_Croissant.png	mou_Kraehe.png	ok
60601	09/08/2021 14:32:30	1	51	74479	1086632	1	478	1085711	1089114	1	479	1087832	3	273	organic	correct	1089414	1	479	1087832	1093596	1	481	1092071	2	243	1093862	1	481	1092071	1098228	1	483	1096312	3	1994	organic	incorrect	1100244	1	484	1098432	1102943	1	486	1102671	2	214	1103193	1	486	1102671	foi_05187.png	foi_Apfelkuchen.png	foi_Pflanze.png	ok
60601	09/08/2021 14:32:48	1	52	74479	1107325	1	488	1106911	1109324	1	489	1109031	3	556	organic	correct	1109924	1	489	1109031	1113672	1	491	1113272	2	1188	1114889	1	491	1113272	1117588	1	493	1117511	2	1557	organic	incorrect	1119171	1	493	1117511	1121736	1	494	1119632	2	685	1122453	1	495	1121752	foc_02664.png	foc_Brombeere.png	foc_Eule.png	ok
60601	09/08/2021 14:33:09	1	53	74479	1125085	1	496	1123871	1128467	1	498	1128112	2	214	inorganic	correct	1128717	1	498	1128112	1132883	1	500	1132351	3	644	1133549	1	500	1132351	1136815	1	502	1136592	3	935	inorganic	correct	1137781	1	502	1136592	1141296	1	504	1140831	4	291	1141613	1	504	1140831	mac_59752.png	mac_Dartpfeil.png	mac_Medaille.png	ok
60601	09/08/2021 14:33:31	1	54	74479	1146261	1	506	1145072	1148061	1	507	1147191	3	1612	inorganic	incorrect	1149694	1	508	1149311	1152593	1	509	1151431	2	855	1153476	1	509	1151431	1157591	1	511	1155671	3	954	inorganic	correct	1158591	1	512	1157791	1162539	1	514	1162031	4	390	1162956	1	514	1162031	fac_02970.png	fac_Haarbuerste.png	fac_Ohrring.png	ok
60601	09/08/2021 14:33:51	1	55	74479	1167687	1	516	1166271	1170503	1	517	1168391	2	266	organic	incorrect	1170803	1	518	1170511	1174302	1	519	1172631	3	320	1174652	1	519	1172631	1178684	1	521	1176871	2	1118	organic	correct	1179833	1	522	1178991	1182749	1	523	1181111	4	310	1183082	1	523	1181111	mom_59641.png	mom_Loewe.png	mom_Ei.png	ok
60601	09/08/2021 14:34:12	1	56	74479	1187697	1	526	1187471	1189863	1	527	1189591	2	933	organic	incorrect	1190830	1	527	1189591	1194928	1	529	1193831	2	262	1195228	1	529	1193831	1200027	1	531	1198071	2	1782	organic	incorrect	1201843	1	532	1200190	1203659	1	533	1202311	2	378	1204075	1	533	1202311	mot_69770.png	mot_Bison.png	mot_Hotdog.png	ok
60601	09/08/2021 14:34:31	1	57	74479	1208974	1	536	1208671	1211373	1	537	1210791	3	563	organic	correct	1211972	1	537	1210791	1215238	1	539	1215030	2	326	1215588	1	539	1215030	1219270	1	540	1217151	3	2151	organic	incorrect	1221453	1	542	1221391	1224502	1	543	1223510	2	507	1225035	1	543	1223510	mog_03277.png	mog_Pilz.png	mog_Fledermaus.png	ok
60601	09/08/2021 14:34:49	1	58	74479	1228184	1	545	1227751	1229866	1	545	1227751	2	870	organic	incorrect	1230766	1	546	1229870	1233632	1	547	1231990	2	265	1233932	1	547	1231990	1237281	1	549	1236231	2	1378	organic	correct	1238680	1	550	1238350	1241079	1	551	1240470	4	290	1241396	1	551	1240470	fop_07937.png	fop_Mango.png	fop_Koala.png	ok
60601	09/08/2021 14:35:09	1	59	74479	1246044	1	553	1244711	1249077	1	555	1248951	2	450	organic	incorrect	1249560	1	555	1248951	1253225	1	557	1253190	2	385	1253658	1	557	1253190	1257224	1	558	1255310	2	1986	organic	correct	1259240	1	559	1257431	1262272	1	561	1261670	3	311	1262605	1	561	1261670	fok_09860.png	fok_Kaenguruh.png	fok_Palme.png	ok
60601	09/08/2021 14:35:28	1	60	74479	1266187	1	563	1265911	1267920	1	563	1265911	3	1829	organic	correct	1269786	1	564	1268030	1271402	1	565	1270150	4	782	1272219	1	565	1270150	1275234	1	567	1274391	2	511	organic	correct	1275768	1	567	1274391	1280449	1	569	1278630	4	310	1280783	1	570	1280750	moh_07125.png	moh_Birne.png	moh_Muecke.png	ok
60601	09/08/2021 14:35:48	1	61	74479	1284681	1	571	1282871	1287597	1	573	1287110	2	1310	inorganic	correct	1288930	1	573	1287110	1291446	1	575	1291350	3	440	1291912	1	575	1291350	1295861	1	577	1295590	2	2803	inorganic	incorrect	1298693	1	578	1297711	1301342	1	579	1299830	3	881	1302259	1	580	1301950	fat_14140.png	fat_Kleiderbuegel.png	fat_Einkaufswagen.png	ok
60601	09/08/2021 14:36:07	1	62	74479	1305341	1	581	1304070	1308007	1	582	1306190	2	227	inorganic	correct	1308257	1	582	1306190	1312005	1	584	1310430	4	234	1312272	1	584	1310430	1316154	1	586	1314670	2	579	inorganic	correct	1316754	1	586	1314670	1320053	1	588	1318910	4	290	1320369	1	588	1318910	fap_17119.png	fap_Kissen.png	fap_Knopf.png	ok
60601	09/08/2021 14:36:26	1	63	74479	1323868	1	590	1323150	1326134	1	591	1325270	2	527	inorganic	correct	1326684	1	591	1325270	1329566	1	593	1329509	2	392	1329983	1	593	1329509	1333032	1	594	1331630	3	897	inorganic	correct	1333965	1	595	1333750	1338013	1	596	1335870	4	646	1338696	1	597	1337990	mat_23754.png	mat_Feuerzeug.png	mat_Helm.png	ok
60601	09/08/2021 14:36:47	1	64	74479	1342961	1	599	1342230	1344528	1	600	1344350	3	1519	organic	correct	1346077	1	600	1344350	1349376	1	602	1348590	3	252	1349659	1	602	1348590	1354674	1	604	1352829	2	1886	organic	correct	1356590	1	605	1354950	1359589	1	607	1359190	3	1218	1360839	1	607	1359190	moj_11860.png	moj_Blatt.png	moj_Walnuss.png	ok
60601	09/08/2021 14:37:06	1	65	74479	1363588	1	609	1363430	1365720	1	610	1365550	3	1323	inorganic	incorrect	1367070	1	610	1365550	1369752	1	611	1367669	2	238	1370019	1	612	1369789	1374318	1	614	1374030	3	508	inorganic	correct	1374851	1	614	1374030	1378300	1	616	1378270	4	362	1378699	1	616	1378270	mak_03979.png	mak_Socken.png	mak_Rucksack.png	ok
60601	09/08/2021 14:37:27	1	66	74479	1382681	1	618	1382510	1386047	1	619	1384629	3	362	organic	correct	1386447	1	619	1384629	1390762	1	621	1388870	2	215	1391012	1	621	1388870	1395061	1	623	1393109	3	1472	organic	correct	1396560	1	624	1395230	1400059	1	626	1399469	4	260	1400342	1	626	1399469	fov_15193.png	fov_Zucchini.png	fov_Fisch.png	ok
60601	09/08/2021 14:37:50	1	67	74479	1404007	1	628	1403710	1407556	1	629	1405829	2	232	inorganic	correct	1407823	1	629	1405829	1412788	1	632	1412190	2	266	1413088	1	632	1412190	1417720	1	634	1416429	2	1098	inorganic	correct	1418852	1	635	1418549	1423068	1	637	1422789	4	261	1423351	1	637	1422789	maj_01546.png	maj_Krawatte.png	maj_Computermaus.png	ok
60601	09/08/2021 14:38:11	1	68	74479	1427400	1	639	1427030	1430565	1	640	1429149	3	233	organic	correct	1430832	1	640	1429149	1435780	1	643	1435510	2	352	1436163	1	643	1435510	1439579	1	644	1437629	3	1242	organic	correct	1440845	1	645	1439749	1443361	1	646	1441869	4	393	1443777	1	646	1441869	for_15880.png	for_Seehund.png	for_Mandel.png	ok
60601	09/08/2021 14:38:29	1	69	74479	1447943	1	648	1446109	1450225	1	649	1448229	2	334	inorganic	correct	1450592	1	650	1450349	1454407	1	651	1452469	2	340	1454790	1	652	1454589	1458556	1	653	1456709	2	1734	inorganic	incorrect	1460322	1	654	1458830	1462738	1	655	1460949	2	258	1463021	1	655	1460949	mae_36426.png	mae_Schach.png	mae_Taschenrechner.png	ok
60601	09/08/2021 14:38:52	1	70	74479	1466370	1	657	1465189	1469785	1	659	1469429	2	321	inorganic	correct	1470135	1	659	1469429	1473517	1	660	1471549	2	1182	1474734	1	661	1473669	1478599	1	663	1477909	3	2237	inorganic	correct	1480865	1	664	1480029	1483830	1	665	1482149	2	296	1484164	1	665	1482149	faw_14685.png	faw_Hufeisen.png	faw_Kuechenmaschine.png	ok
60601	09/08/2021 14:39:15	1	71	74479	1488979	1	668	1488509	1491711	1	669	1490628	3	689	organic	correct	1492428	1	669	1490628	1496493	1	671	1494869	2	127	1496643	1	671	1494869	1501808	1	674	1501229	2	1048	organic	correct	1502907	1	674	1501229	1507306	1	676	1505468	4	332	1507672	1	677	1507588	fou_18966.png	fou_Feige.png	fou_Schmetterling.png	ok
60601	09/08/2021 14:39:34	1	72	74479	1511738	1	678	1509709	1513304	1	679	1511829	2	816	organic	incorrect	1514154	1	680	1513948	1516769	1	681	1516069	2	637	1517436	1	681	1516069	1520868	1	683	1520309	2	2418	organic	correct	1523317	1	684	1522428	1525750	1	685	1524549	4	370	1526149	1	685	1524549	mob_22833.png	mob_Igel.png	mob_Kiwi.png	ok
60601	09/08/2021 14:39:53	1	73	74479	1530565	1	687	1528788	1532397	1	688	1530908	2	274	inorganic	correct	1532697	1	688	1530908	1537646	1	691	1537268	4	248	1537929	1	691	1537268	1542694	1	693	1541509	2	500	inorganic	correct	1543227	1	693	1541509	1546409	1	695	1545748	4	653	1547092	1	695	1545748	fai_07637.png	fai_Kommode.png	fai_Foehn.png	ok
60601	09/08/2021 14:40:13	1	74	74479	1550575	1	697	1549989	1553157	1	698	1552108	3	240	inorganic	incorrect	1553440	1	698	1552108	1556606	1	700	1556349	3	575	1557206	1	700	1556349	1561671	1	702	1560588	2	2254	inorganic	correct	1563953	1	703	1562708	1566569	1	704	1564829	2	651	1567252	1	705	1566948	mal_20552.png	mal_Kugelschreiber.png	mal_Drucker.png	ok
60601	09/08/2021 14:40:35	1	75	74479	1570201	1	706	1569068	1572167	1	707	1571188	2	574	organic	incorrect	1572767	1	707	1571188	1577232	1	709	1575428	2	279	1577549	1	709	1575428	1582031	1	712	1581789	2	1659	organic	correct	1583713	1	712	1581789	1587212	1	714	1586028	3	313	1587562	1	714	1586028	foj_08937.png	foj_Waffel.png	foj_Rose.png	ok
60601	09/08/2021 14:40:56	1	76	74479	1591977	1	716	1590268	1594910	1	718	1594508	2	1239	organic	incorrect	1596176	1	718	1594508	1599958	1	720	1598748	2	262	1600274	1	720	1598748	1604606	1	722	1602988	3	2009	organic	incorrect	1606639	1	723	1605108	1608821	1	724	1607228	2	367	1609221	1	724	1607228	mol_11363.png	mol_Pizza.png	mol_Schimpanse.png	ok
60601	09/08/2021 14:41:15	1	77	74479	1612637	1	726	1611468	1614836	1	727	1613588	3	359	inorganic	incorrect	1615219	1	727	1613588	1618402	1	729	1617828	2	479	1618918	1	729	1617828	1621767	1	730	1619948	3	2079	inorganic	correct	1623866	1	731	1622068	1627249	1	733	1626308	2	367	1627648	1	733	1626308	mao_19000.png	mao_Stempel.png	mao_Kegel.png	ok
60601	09/08/2021 14:41:37	1	78	74479	1632397	1	735	1630548	1635362	1	737	1634788	3	884	organic	correct	1636279	1	737	1634788	1640527	1	739	1639028	2	554	1641111	1	739	1639028	1644576	1	741	1643268	2	2312	organic	incorrect	1646909	1	742	1645388	1649308	1	743	1647508	2	264	1649624	1	743	1647508	mon_69587.png	mon_Fuchs.png	mon_Kartoffel.png	ok
60601	09/08/2021 14:41:54	1	79	74479	1653873	1	745	1651747	1655939	1	746	1653868	2	1706	inorganic	correct	1657672	1	747	1655988	1659404	1	748	1658108	2	568	1660004	1	748	1658108	1663836	1	750	1662348	3	1222	inorganic	correct	1665086	1	751	1664468	1667868	1	752	1666587	4	318	1668218	1	752	1666587	mai_23761.png	mai_Gewehr.png	mai_Auto.png	ok
60601	09/08/2021 14:42:15	1	80	74479	1671517	1	754	1670828	1675049	1	755	1672948	2	272	inorganic	correct	1675349	1	756	1675067	1680014	1	758	1679308	4	293	1680331	1	758	1679308	1683996	1	760	1683547	3	787	inorganic	correct	1684812	1	760	1683547	1687828	1	762	1687788	4	382	1688245	1	762	1687788	fal_07977.png	fal_Korb.png	fal_Buegeleisen.png	ok
60601	09/08/2021 14:42:35	1	81	74479	1692543	1	764	1692027	1695675	1	765	1694148	3	304	inorganic	incorrect	1696009	1	765	1694148	1699941	1	767	1698387	2	601	1700590	1	768	1700507	1703656	1	769	1702628	3	2083	inorganic	correct	1705772	1	770	1704747	1708554	1	771	1706867	2	374	1708954	1	771	1706867	maw_22459.png	maw_Schlauchboot.png	maw_Pingpongschlaeger.png	ok
60601	09/08/2021 14:42:54	1	82	74479	1712153	1	773	1711108	1714086	1	774	1713227	2	297	inorganic	correct	1714419	1	774	1713227	1718768	1	776	1717468	2	642	1719434	1	776	1717468	1722850	1	778	1721707	2	2174	inorganic	correct	1725049	1	779	1723827	1726765	1	780	1725948	2	393	1727181	1	780	1725948	fax_15310.png	fax_Klebeband.png	fax_Fahrrad.png	ok
60601	09/08/2021 14:43:13	1	83	74479	1731430	1	782	1730187	1734029	1	783	1732307	3	241	organic	correct	1734296	1	783	1732307	1738528	1	785	1736547	4	731	1739294	1	786	1738667	1742293	1	787	1740787	2	733	organic	correct	1743059	1	788	1742908	1746142	1	789	1745027	4	364	1746542	1	789	1745027	moe_23630.png	moe_Waschbaer.png	moe_Pommes.png	ok
60601	09/08/2021 14:43:32	1	84	74479	1749790	1	791	1749267	1753156	1	792	1751387	2	279	inorganic	correct	1753473	1	792	1751387	1757871	1	795	1757747	2	381	1758288	1	795	1757747	1761570	1	796	1759867	3	1961	inorganic	correct	1763552	1	797	1761987	1765585	1	798	1764107	2	321	1765935	1	798	1764107	mas_41937.png	mas_Tisch.png	mas_Bueroklammer.png	ok
60601	09/08/2021 14:43:50	1	85	74479	1769201	1	800	1768347	1771483	1	801	1770467	3	647	organic	correct	1772166	1	801	1770467	1774982	1	803	1774707	4	865	1775882	1	803	1774707	1778664	1	804	1776827	2	485	organic	correct	1779180	1	805	1778947	1783562	1	807	1783187	4	231	1783829	1	807	1783187	foe_08514.png	foe_Tannenzapfen.png	foe_Adler.png	ok
60601	09/08/2021 14:44:11	1	86	74479	1787494	1	809	1787427	1790827	1	810	1789546	3	225	organic	correct	1791076	1	810	1789546	1795692	1	812	1793787	2	411	1796141	1	813	1795907	1799574	1	814	1798026	2	1278	organic	correct	1800873	1	815	1800147	1804355	1	816	1802267	4	249	1804639	1	817	1804386	mos_23223.png	mos_Eintagsfliege.png	mos_Traube.png	ok
60601	09/08/2021 14:44:30	1	87	74479	1808354	1	818	1806506	1810886	1	820	1810747	2	231	inorganic	correct	1811153	1	820	1810747	1814302	1	821	1812866	2	447	1814785	1	821	1812866	1817951	1	823	1817107	3	1807	inorganic	correct	1819783	1	824	1819227	1822516	1	825	1821346	2	241	1822782	1	825	1821346	fab_06286.png	fab_Kinderwagen.png	fab_Staubsauger.png	ok
60601	09/08/2021 14:44:50	1	88	74479	1826564	1	827	1825587	1829613	1	828	1827706	3	323	organic	correct	1829963	1	829	1829826	1832979	1	830	1831947	4	420	1833429	1	830	1831947	1838227	1	832	1836186	2	516	organic	correct	1838777	1	833	1838306	1843725	1	835	1842546	4	334	1844092	1	835	1842546	mof_06901.png	mof_Hahn.png	mof_Spaghetti.png	ok
60601	09/08/2021 14:45:10	1	89	74479	1847124	1	837	1846786	1848957	1	837	1846786	2	728	inorganic	correct	1849723	1	838	1848907	1853205	1	840	1853146	2	342	1853572	1	840	1853146	1858287	1	842	1857387	3	2097	inorganic	correct	1860420	1	843	1859505	1863302	1	844	1861626	2	312	1863652	1	844	1861626	mau_58144.png	mau_Wasserventil.png	mau_Leiter.png	ok
60601	09/08/2021 14:45:31	1	90	74479	1866684	1	846	1865865	1869283	1	847	1867986	3	239	inorganic	incorrect	1869550	1	847	1867986	1873465	1	849	1872227	2	460	1873948	1	849	1872227	1877664	1	851	1876465	3	956	inorganic	correct	1878647	1	852	1878585	1882679	1	853	1880705	4	272	1882979	1	854	1882825	faj_07849.png	faj_Parfuem.png	faj_Schuh.png	ok
60601	09/08/2021 14:45:51	1	91	74479	1887910	1	856	1887065	1890909	1	857	1889185	3	346	inorganic	incorrect	1891293	1	857	1889185	1895308	1	859	1893425	2	280	1895641	1	860	1895546	1899523	1	861	1897665	3	1853	inorganic	correct	1901406	1	862	1899785	1904022	1	863	1901905	4	318	1904371	1	864	1904025	fag_06551.png	fag_Portemonnaie.png	fag_Geschenk.png	ok
60601	09/08/2021 14:46:13	1	92	74479	1908387	1	866	1908265	1911169	1	867	1910385	2	274	organic	incorrect	1911469	1	867	1910385	1915584	1	869	1914626	2	362	1915984	1	869	1914626	1920749	1	871	1918865	2	1768	organic	correct	1922549	1	872	1920985	1924581	1	873	1923106	4	699	1925314	1	874	1925225	fot_06092.png	fot_Taube.png	fot_Salat.png	ok
60601	09/08/2021 14:46:32	1	93	74479	1929680	1	876	1929465	1931329	1	876	1929465	2	1204	inorganic	correct	1932562	1	877	1931585	1935544	1	878	1933705	2	682	1936261	1	879	1935825	1939243	1	880	1937946	3	913	inorganic	correct	1940176	1	881	1940065	1943591	1	882	1942184	4	751	1944391	1	883	1944305	map_49576.png	map_Globus.png	map_Pfeife.png	ok
60601	09/08/2021 14:46:55	1	94	74479	1948940	1	885	1948545	1952372	1	886	1950664	2	203	organic	incorrect	1952605	1	886	1950664	1957603	1	889	1957025	2	345	1957970	1	889	1957025	1961602	1	891	1961265	3	1415	organic	correct	1963052	1	891	1961265	1966800	1	893	1965504	4	282	1967117	1	893	1965504	foa_00426.png	foa_Aubergine.png	foa_Marienkaefer.png	ok
60601	09/08/2021 14:47:16	1	95	74479	1971665	1	895	1969745	1974781	1	897	1973984	2	215	inorganic	correct	1975031	1	897	1973984	1978196	1	898	1976105	2	414	1978646	1	899	1978225	1983011	1	901	1982464	2	1484	inorganic	correct	1984528	1	901	1982464	1988343	1	903	1986705	4	796	1989176	1	904	1988824	fan_18894.png	fan_Lampe.png	fan_Klavier.png	ok
60601	09/08/2021 14:47:37	1	96	74479	1993358	1	906	1993065	1996490	1	907	1995185	2	433	organic	incorrect	1996973	1	907	1995185	2001439	1	909	1999424	2	514	2001988	1	910	2001545	2005137	1	911	2003664	3	1489	organic	correct	2006653	1	912	2005784	2010102	1	914	2010025	3	766	2010902	1	914	2010025	foq_17341.png	foq_Pinguin.png	foq_Fenchel.png	ok
