ID	DateTime	Run	Delayed_Retrieval_Trial	First_Pulse_Time	FaceRecog_OnsetTime	FaceRecog_OnsetTimeUncertainty	FaceRecog_fMRI_Pulse	FaceRecog_fMRI_PulseTime	Assoc_Retrieval_OnsetTime	Assoc_Retrieval_OnsetTimeUncertainty	Assoc_Retrieval_fMRI_Pulse	Assoc_Retrieval_fMRI_PulseTime	Assoc_Retrieval_Pressed_Button	Assoc_Retrieval_RT	Assoc_Retrieval_Response_Category	Assoc_Retrieval_Accuracy	Assoc_Retrieval_Feedback_OnsetTime	Assoc_Retrieval_Feedback_OnsetTimeUncertainty	Assoc_Retrieval_Feedback_fMRI_Pulse	Assoc_Retrieval_Feedback_fMRI_PulseTime	Retrieval_consc_Rating_OnsetTime	Retrieval_consc_Rating_OnsetTimeUncertainty	Retrieval_consc_Rating_fMRI_Pulse	Retrieval_consc_Rating_fMRI_PulseTime	Retrieval_consc_Rating_Pressed_Button	Retrieval_consc_Rating_RT	Retrieval_consc_Rating_Feedback_OnsetTime	Retrieval_consc_Rating_Feedback_OnsetTimeUncertainty	Retrieval_consc_Rating_Feedback_fMRI_Pulse	Retrieval_consc_Rating_Feedback_fMRI_PulseTime	ForcedChoice_OnsetTime	ForcedChoice_OnsetTimeUncertainty	ForcedChoice_fMRI_Pulse	ForcedChoice_fMRI_PulseTime	ForcedChoice_Pressed_Button	ForcedChoice_RT	ForcedChoice_Response_Category	ForcedChoice_Accuracy	ForcedChoice_Feedback_OnsetTime	ForcedChoice_Feedback_OnsetTimeUncertainty	ForcedChoice_Feedback_fMRI_Pulse	ForcedChoice_Feedback_fMRI_PulseTime	Recognition_consc_Rating_OnsetTime	Recognition_consc_Rating_OnsetTimeUncertainty	Recognition_consc_Rating_fMRI_Pulse	Recognition_consc_Rating_fMRI_PulseTime	Recognition_consc_Rating_Pressed_Button	Recognition_consc_Rating_RT	Recognition_consc_Rating_Feedback_OnsetTime	Recognition_consc_Rating_Feedback_OnsetTimeUncertainty	Recognition_consc_Rating_Feedback_fMRI_Pulse	Recognition_consc_Rating_Feedback_fMRI_PulseTime	Presented_Person	Presented_Target	Presented_Lure	TrialStatus
60989	06/30/2021 08:36:18	1	1	45106	59629	1	6	58598	61629	1	7	61306	2	1654	inorganic	correct	63311	1	7	61306	66827	1	9	66706	3	931	67793	1	9	66706	71659	1	10	69406	3	2491	inorganic	correct	74174	1	11	72106	77107	1	12	74806	4	616	77773	1	13	77506	mac_59169.png	mac_Dartpfeil.png	mac_Medaille.png	ok
60989	06/30/2021 08:36:36	1	2	45106	81605	1	14	80206	83305	1	15	82906	2	1562	organic	incorrect	84904	1	15	82906	87487	1	16	85606	2	883	88403	1	17	88306	91585	1	18	91006	2	2322	organic	correct	93935	1	19	93706	96167	1	19	93706	3	558	96750	1	20	96406	fok_09378.png	fok_Kaenguruh.png	fok_Palme.png	ok
60989	06/30/2021 08:36:58	1	3	45106	100016	1	21	99106	102881	1	22	101806	2	973	inorganic	correct	103881	1	22	101806	107597	1	24	107205	3	266	107896	1	24	107205	112345	1	25	109906	3	1576	inorganic	correct	113944	1	26	112606	116943	1	27	115305	4	558	117527	1	27	115305	map_41499.png	map_Pfeife.png	map_Globus.png	ok
60989	06/30/2021 08:37:19	1	4	45106	121958	1	29	120706	125491	1	30	123405	2	546	inorganic	correct	126090	1	30	123405	129889	1	32	128806	3	574	130489	1	32	128806	133938	1	33	131505	2	2814	inorganic	correct	136787	1	34	134206	137720	1	35	136906	3	2614	140369	1	36	139605	faj_07783.png	faj_Schuh.png	faj_Parfuem.png	ok
60989	06/30/2021 08:37:38	1	5	45106	142568	1	37	142306	144784	1	37	142306	3	487	organic	correct	145301	1	38	145006	149999	1	39	147705	4	658	150682	1	40	150406	153981	1	41	153105	3	1530	organic	correct	155547	1	41	153105	158613	1	43	158506	3	1070	159712	1	43	158506	fou_17118.png	fou_Feige.png	fou_Schmetterling.png	ok
60989	06/30/2021 08:38:02	1	6	45106	162245	1	44	161205	165427	1	45	163905	3	1482	inorganic	incorrect	166943	1	46	166606	170409	1	47	169305	2	522	170959	1	47	169305	175674	1	49	174706	2	1663	inorganic	correct	177373	1	49	174706	181122	1	51	180105	3	304	181455	1	51	180105	maw_04767.png	maw_Pingpongschlaeger.png	maw_Schlauchboot.png	ok
60989	06/30/2021 08:38:22	1	7	45106	185420	1	52	182806	187420	1	53	185505	3	1082	organic	correct	188536	1	54	188205	192218	1	55	190906	4	446	192701	1	55	190906	197100	1	57	196305	2	637	organic	correct	197766	1	57	196305	201748	1	59	201705	4	795	202581	1	59	201705	mom_59361.png	mom_Loewe.png	mom_Ei.png	ok
60989	06/30/2021 08:38:41	1	8	45106	205980	1	60	204405	208429	1	61	207106	2	662	inorganic	correct	209129	1	61	207106	212495	1	62	209805	3	340	212861	1	63	212505	215960	1	64	215205	3	1073	inorganic	correct	217060	1	64	215205	221042	1	66	220605	4	666	221741	1	66	220605	fax_14883.png	fax_Klebeband.png	fax_Fahrrad.png	ok
60989	06/30/2021 08:39:01	1	9	45106	224824	1	67	223305	227290	1	68	226005	2	363	organic	incorrect	227689	1	68	226005	231105	1	69	228705	3	536	231671	1	70	231405	235087	1	71	234105	0	0	organic	miss	235087	1	72	236805	239752	1	73	239505	2	1646	241435	1	73	239505	foq_16799.png	foq_Fenchel.png	foq_Pinguin.png	ok
60989	06/30/2021 08:39:20	1	10	45106	244484	1	74	242205	247266	1	75	244905	3	490	inorganic	incorrect	247783	1	76	247605	251165	1	77	250305	3	683	251881	1	77	250305	255780	1	79	255705	3	1329	inorganic	incorrect	257130	1	79	255705	259862	1	80	258405	2	414	260312	1	80	258405	mak_00987.png	mak_Socken.png	mak_Rucksack.png	ok
60989	06/30/2021 08:39:40	1	11	45106	263944	1	82	263805	266376	1	82	263805	3	905	organic	correct	267309	1	83	266505	271158	1	84	269204	2	726	271908	1	84	269204	274590	1	85	271905	2	2049	organic	correct	276690	1	86	274605	278472	1	87	277304	3	820	279322	1	87	277304	foe_08236.png	foe_Tannenzapfen.png	foe_Adler.png	ok
60989	06/30/2021 08:40:00	1	12	45106	283787	1	89	282705	285803	1	90	285404	2	696	organic	incorrect	286536	1	90	285404	290935	1	92	290805	3	346	291318	1	92	290805	295450	1	93	293504	3	1907	organic	incorrect	297383	1	94	296205	300048	1	95	298905	2	1458	301531	1	95	298905	moj_11821.png	moj_Blatt.png	moj_Walnuss.png	ok
60989	06/30/2021 08:40:21	1	13	45106	303697	1	96	301604	306380	1	97	304305	3	1489	organic	correct	307896	1	98	307005	310945	1	99	309704	2	346	311328	1	99	309704	316193	1	101	315105	2	1602	organic	correct	317826	1	101	315105	319808	1	102	317804	4	639	320475	1	102	317804	mof_02408.png	mof_Spaghetti.png	mof_Hahn.png	ok
60989	06/30/2021 08:40:39	1	14	45106	324657	1	104	323204	327023	1	105	325904	2	1175	inorganic	correct	328222	1	105	325904	330688	1	106	328605	3	298	331021	1	106	328605	335520	1	108	334004	3	1744	inorganic	correct	337286	1	109	336705	339585	1	110	339404	3	756	340368	1	110	339404	fal_07906.png	fal_Buegeleisen.png	fal_Korb.png	ok
60989	06/30/2021 08:41:00	1	15	45106	343084	1	111	342104	346616	1	112	344805	3	1086	organic	correct	347732	1	113	347504	350165	1	113	347504	3	699	350898	1	114	350204	354397	1	115	352905	2	1673	organic	correct	356096	1	116	355604	358962	1	117	358304	3	710	359695	1	117	358304	mob_00760.png	mob_Igel.png	mob_Kiwi.png	ok
60989	06/30/2021 08:41:21	1	16	45106	364227	1	119	363704	366026	1	119	363704	3	642	organic	correct	366693	1	120	366404	371324	1	121	369105	4	444	371808	1	121	369105	375506	1	123	374504	2	1907	organic	correct	377439	1	124	377204	380105	1	125	379904	3	403	380538	1	125	379904	fop_00621.png	fop_Mango.png	fop_Koala.png	ok
60989	06/30/2021 08:41:42	1	17	45106	384653	1	126	382604	387686	1	127	385304	2	293	organic	incorrect	388002	1	127	385304	392967	1	129	390704	4	600	393600	1	130	393404	397349	1	131	396104	3	2028	organic	correct	399398	1	132	398804	401831	1	133	401504	3	1277	403130	1	133	401504	moe_02012.png	moe_Pommes.png	moe_Waschbaer.png	ok
60989	06/30/2021 08:42:02	1	18	45106	405713	1	134	404204	408229	1	135	406904	2	415	inorganic	correct	408679	1	135	406904	412294	1	136	409604	4	702	413027	1	137	412304	416059	1	138	415004	3	1170	inorganic	correct	417259	1	138	415004	421208	1	140	420404	4	540	421791	1	140	420404	fat_12032.png	fat_Kleiderbuegel.png	fat_Einkaufswagen.png	ok
60989	06/30/2021 08:42:20	1	19	45106	426056	1	142	425804	428422	1	142	425804	2	293	inorganic	correct	428738	1	143	428504	433004	1	144	431204	4	281	433320	1	144	431204	436686	1	146	436604	3	1057	inorganic	correct	437769	1	146	436604	440301	1	147	439303	4	605	440934	1	147	439303	fai_07494.png	fai_Foehn.png	fai_Kommode.png	ok
60989	06/30/2021 08:42:40	1	20	45106	444233	1	148	442004	447166	1	149	444704	3	1068	organic	correct	448265	1	150	447403	451547	1	151	450104	2	367	451947	1	151	450104	455163	1	152	452804	3	1848	organic	incorrect	457046	1	153	455503	459595	1	154	458204	3	392	460011	1	154	458204	mol_07679.png	mol_Schimpanse.png	mol_Pizza.png	ok
60989	06/30/2021 08:42:57	1	21	45106	463743	1	156	463603	466209	1	156	463603	3	352	inorganic	incorrect	466592	1	157	466304	469591	1	158	469004	3	429	470075	1	158	469004	473873	1	159	471703	2	2386	inorganic	correct	476289	1	160	474404	477589	1	161	477104	3	1634	479255	1	161	477104	fac_02146.png	fac_Ohrring.png	fac_Haarbuerste.png	ok
60989	06/30/2021 08:43:17	1	22	45106	480971	1	162	479803	484037	1	163	482504	3	1251	organic	correct	485319	1	164	485204	488335	1	165	487903	2	320	488685	1	165	487903	491684	1	166	490604	2	1773	organic	correct	493483	1	167	493303	496382	1	168	496003	2	1898	498315	1	168	496003	foc_02157.png	foc_Brombeere.png	foc_Eule.png	ok
60989	06/30/2021 08:43:39	1	23	45106	500631	1	169	498704	503813	1	170	501403	3	924	organic	correct	504763	1	171	504103	508312	1	172	506803	3	821	509161	1	172	506803	513027	1	174	512203	2	2060	organic	correct	515109	1	175	514904	518142	1	176	517603	4	1046	519241	1	176	517603	mos_20953.png	mos_Traube.png	mos_Eintagsfliege.png	ok
60989	06/30/2021 08:44:01	1	24	45106	522990	1	177	520303	526556	1	179	525703	2	920	organic	incorrect	527505	1	179	525703	531154	1	181	531103	2	425	531604	1	181	531103	535286	1	182	533803	3	2864	organic	correct	538185	1	183	536503	540734	1	184	539203	2	993	541750	1	184	539203	fov_15046.png	fov_Fisch.png	fov_Zucchini.png	ok
60989	06/30/2021 08:44:24	1	25	45106	545183	1	186	544603	548298	1	187	547303	2	672	organic	incorrect	548998	1	187	547303	553330	1	189	552703	3	393	553746	1	189	552703	558045	1	190	555403	3	1498	organic	correct	559578	1	191	558103	563493	1	192	560803	4	338	563860	1	193	563503	moh_06446.png	moh_Muecke.png	moh_Birne.png	ok
60989	06/30/2021 08:44:43	1	26	45106	568075	1	194	566203	570058	1	195	568903	3	1221	inorganic	incorrect	571324	1	195	568903	574123	1	196	571603	3	1185	575339	1	197	574303	578488	1	198	577003	2	1915	inorganic	correct	580437	1	199	579702	582903	1	200	582403	2	389	583320	1	200	582403	far_00736.png	far_Heissluftballon.png	far_Giesskanne.png	ok
60989	06/30/2021 08:45:02	1	27	45106	586519	1	201	585103	588685	1	202	587802	2	299	inorganic	correct	589018	1	202	587802	592783	1	203	590503	4	276	593083	1	203	590503	597748	1	205	595902	3	624	inorganic	correct	598398	1	205	595902	602213	1	207	601302	4	327	602563	1	207	601302	mas_41366.png	mas_Bueroklammer.png	mas_Tisch.png	ok
60989	06/30/2021 08:45:21	1	28	45106	605779	1	208	604002	609011	1	209	606703	2	782	inorganic	correct	609828	1	210	609402	612827	1	211	612102	4	374	613226	1	211	612102	616592	1	212	614803	3	1064	inorganic	correct	617725	1	213	617502	620457	1	214	620202	4	677	621174	1	214	620202	mai_06530.png	mai_Gewehr.png	mai_Auto.png	ok
60989	06/30/2021 08:45:40	1	29	45106	624872	1	215	622903	627838	1	216	625602	3	1050	inorganic	incorrect	628921	1	217	628302	632337	1	218	631004	2	295	632670	1	218	631004	636302	1	219	633702	3	1873	inorganic	correct	638201	1	220	636402	640384	1	221	639103	2	527	640934	1	221	639103	fap_16329.png	fap_Kissen.png	fap_Knopf.png	ok
60989	06/30/2021 08:46:00	1	30	45106	644149	1	222	641802	646215	1	223	644502	2	1305	inorganic	correct	647548	1	224	647204	649797	1	224	647204	3	519	650347	1	225	649902	653746	1	226	652602	2	2042	inorganic	correct	655812	1	227	655302	659161	1	228	658002	3	507	659694	1	228	658002	fan_17286.png	fan_Klavier.png	fan_Lampe.png	ok
60989	06/30/2021 08:46:19	1	31	45106	663376	1	229	660702	666042	1	230	663402	3	895	organic	correct	666958	1	231	666102	670457	1	232	668802	2	636	671140	1	232	668802	674672	1	234	674202	2	1333	organic	correct	676039	1	234	674202	678288	1	235	676902	4	819	679138	1	235	676902	foi_03389.png	foi_Apfelkuchen.png	foi_Pflanze.png	ok
60989	06/30/2021 08:46:40	1	32	45106	683036	1	237	682302	684886	1	237	682302	3	1290	organic	correct	686202	1	238	685002	689651	1	239	687702	3	451	690134	1	239	687702	694216	1	241	693102	2	2489	organic	incorrect	696732	1	242	695802	698731	1	243	698502	2	284	699047	1	243	698502	fot_00797.png	fot_Taube.png	fot_Salat.png	ok
60989	06/30/2021 08:47:00	1	33	45106	703529	1	244	701202	705495	1	245	703902	2	1533	organic	incorrect	707061	1	246	706603	710510	1	247	709301	4	492	711027	1	247	709301	714076	1	248	712002	3	1777	organic	correct	715875	1	249	714702	719474	1	250	717401	4	268	719791	1	250	717401	foj_08220.png	foj_Rose.png	foj_Waffel.png	ok
60989	06/30/2021 08:47:19	1	34	45106	723889	1	252	722803	725838	1	253	725502	2	1107	inorganic	correct	726971	1	253	725502	729637	1	254	728202	2	467	730137	1	254	728202	733303	1	255	730902	2	2326	inorganic	incorrect	735652	1	256	733602	737901	1	257	736303	3	1031	738967	1	257	736303	mao_11634.png	mao_Kegel.png	mao_Stempel.png	ok
60989	06/30/2021 08:47:38	1	35	45106	743149	1	259	741702	744715	1	260	744403	2	854	organic	incorrect	745598	1	260	744403	749231	1	261	747103	3	415	749680	1	261	747103	752963	1	263	752503	2	2134	organic	correct	755129	1	263	752503	757378	1	264	755203	2	437	757844	1	264	755203	mot_69374.png	mot_Bison.png	mot_Hotdog.png	ok
60989	06/30/2021 08:47:59	1	36	45106	762093	1	266	760603	764076	1	267	763302	2	858	inorganic	correct	764959	1	267	763302	768824	1	269	768703	4	292	769157	1	269	768703	773622	1	270	771402	2	1896	inorganic	incorrect	775538	1	271	774102	778104	1	272	776803	3	529	778671	1	272	776803	maj_01545.png	maj_Krawatte.png	maj_Computermaus.png	ok
60989	06/30/2021 08:48:20	1	37	45106	783069	1	274	782202	784885	1	274	782202	3	691	organic	correct	785602	1	275	784903	789684	1	276	787602	3	280	790000	1	276	787602	794032	1	278	793003	3	1577	organic	incorrect	795632	1	278	793003	799047	1	280	798402	3	920	799997	1	280	798402	mog_03090.png	mog_Fledermaus.png	mog_Pilz.png	ok
60989	06/30/2021 08:48:39	1	38	45106	804295	1	282	803802	806861	1	283	806502	2	1024	inorganic	correct	807911	1	283	806502	811526	1	284	809203	2	396	811959	1	285	811902	815542	1	286	814602	2	1881	inorganic	correct	817474	1	287	817302	819340	1	287	817302	4	411	819774	1	287	817302	mau_49693.png	mau_Leiter.png	mau_Wasserventil.png	ok
60989	06/30/2021 08:49:00	1	39	45106	823172	1	289	822702	826538	1	290	825402	2	355	organic	incorrect	826921	1	290	825402	830437	1	291	828102	4	311	830770	1	291	828102	834152	1	293	833502	3	2388	organic	correct	836568	1	294	836202	838784	1	294	836202	4	1229	840050	1	295	838902	mou_01862.png	mou_Kraehe.png	mou_Croissant.png	ok
60989	06/30/2021 08:49:20	1	40	45106	843416	1	296	841602	845165	1	297	844302	3	1387	inorganic	incorrect	846581	1	297	844302	849913	1	299	849702	3	280	850230	1	299	849702	855212	1	301	855102	2	2490	inorganic	correct	857727	1	301	855102	859777	1	302	857802	2	798	860610	1	303	860502	faw_14215.png	faw_Kuechenmaschine.png	faw_Hufeisen.png	ok
60989	06/30/2021 08:49:41	1	41	45106	863692	1	304	863202	867091	1	305	865902	3	1248	organic	correct	868390	1	305	865902	870623	1	306	868602	4	266	870923	1	306	868602	875738	1	308	874002	2	1599	organic	correct	877371	1	309	876702	880403	1	310	879401	4	353	880786	1	310	879401	for_15187.png	for_Seehund.png	for_Mandel.png	ok
60989	06/30/2021 08:50:03	1	42	45106	885301	1	312	884802	887634	1	313	887501	2	1501	inorganic	correct	889167	1	313	887501	891849	1	314	890202	3	779	892666	1	314	890202	897164	1	316	895601	2	2680	inorganic	incorrect	899880	1	317	898302	901563	1	318	901002	3	1280	902879	1	318	901002	mae_01010.png	mae_Taschenrechner.png	mae_Schach.png	ok
60989	06/30/2021 08:50:24	1	43	45106	906544	1	320	906402	908910	1	320	906402	2	397	organic	incorrect	909343	1	321	909102	913792	1	322	911801	3	1061	914908	1	323	914502	918907	1	324	917202	0	0	organic	miss	918907	1	325	919901	923405	1	326	922602	3	1377	924805	1	326	922602	mon_65798.png	mon_Kartoffel.png	mon_Fuchs.png	ok
60989	06/30/2021 08:50:44	1	44	45106	927471	1	327	925301	930186	1	328	928001	3	519	inorganic	incorrect	930736	1	329	930702	934135	1	330	933401	3	1173	935335	1	330	933401	939433	1	332	938802	3	1899	inorganic	correct	941366	1	332	938802	943765	1	333	941501	2	373	944165	1	333	941501	fab_06018.png	fab_Staubsauger.png	fab_Kinderwagen.png	ok
60989	06/30/2021 08:51:05	1	45	45106	948230	1	335	946902	951562	1	336	949601	2	829	inorganic	correct	952429	1	337	952301	955711	1	338	955002	2	945	956694	1	338	955002	960176	1	339	957701	2	1720	inorganic	correct	961926	1	340	960401	964325	1	341	963102	2	1167	965541	1	341	963102	fag_06539.png	fag_Geschenk.png	fag_Portemonnaie.png	ok
60989	06/30/2021 08:51:25	1	46	45106	969240	1	343	968501	972789	1	344	971202	3	560	organic	correct	973372	1	344	971202	977270	1	346	976601	3	224	977520	1	346	976601	981186	1	347	979301	2	1681	organic	incorrect	982902	1	348	982001	985484	1	349	984701	3	311	985818	1	349	984701	foa_00207.png	foa_Aubergine.png	foa_Marienkaefer.png	ok
60989	06/30/2021 08:51:44	1	47	45106	989300	1	350	987401	991516	1	351	990101	2	661	inorganic	correct	992199	1	351	990101	995348	1	352	992801	4	399	995781	1	353	995501	999330	1	354	998201	3	1657	inorganic	correct	1001013	1	355	1000901	1004178	1	356	1003601	4	451	1004661	1	356	1003601	mat_23275.png	mat_Helm.png	mat_Feuerzeug.png	ok
60989	06/30/2021 08:52:02	1	48	45106	1007794	1	357	1006301	1010276	1	358	1009001	2	457	inorganic	correct	1010759	1	358	1009001	1014291	1	359	1011701	3	310	1014641	1	360	1014401	1017807	1	361	1017101	2	1451	inorganic	incorrect	1019290	1	361	1017101	1021855	1	362	1019801	3	309	1022189	1	362	1019801	mal_04470.png	mal_Drucker.png	mal_Kugelschreiber.png	ok
60989	06/30/2021 08:52:21	1	49	45106	1025688	1	364	1025200	1027587	1	364	1025200	3	833	inorganic	incorrect	1028453	1	365	1027901	1032402	1	366	1030601	3	390	1032818	1	366	1030601	1036267	1	368	1036001	2	1250	inorganic	correct	1037550	1	368	1036001	1040533	1	369	1038701	4	963	1041532	1	370	1041400	map_49576.png	map_Globus.png	map_Pfeife.png	ok
60989	06/30/2021 08:52:38	1	50	45106	1045114	1	371	1044101	1046680	1	371	1044101	3	626	inorganic	incorrect	1047330	1	372	1046801	1050179	1	373	1049500	3	271	1050479	1	373	1049500	1054978	1	375	1054901	2	2338	inorganic	correct	1057344	1	375	1054901	1058793	1	376	1057600	2	818	1059643	1	376	1057600	faj_07849.png	faj_Parfuem.png	faj_Schuh.png	ok
60989	06/30/2021 08:52:59	1	51	45106	1062375	1	377	1060301	1064508	1	378	1063001	2	848	inorganic	correct	1065407	1	378	1063001	1069556	1	380	1068401	2	367	1069956	1	380	1068401	1074788	1	382	1073800	3	1847	inorganic	correct	1076670	1	383	1076501	1079020	1	383	1076501	3	894	1079936	1	384	1079201	mac_59752.png	mac_Medaille.png	mac_Dartpfeil.png	ok
60989	06/30/2021 08:53:16	1	52	45106	1082685	1	385	1081900	1084651	1	386	1084601	3	1309	organic	correct	1085984	1	386	1084601	1088100	1	387	1087300	2	405	1088533	1	387	1087300	1092715	1	388	1090000	2	1351	organic	incorrect	1094098	1	389	1092701	1096347	1	390	1095400	4	993	1097363	1	390	1095400	fok_09860.png	fok_Palme.png	fok_Kaenguruh.png	ok
60989	06/30/2021 08:53:36	1	53	45106	1100079	1	391	1098100	1102962	1	392	1100801	2	1080	inorganic	correct	1104078	1	393	1103500	1107360	1	394	1106200	2	284	1107677	1	394	1106200	1111942	1	396	1111600	3	1747	inorganic	incorrect	1113741	1	396	1111600	1115607	1	397	1114300	3	932	1116574	1	397	1114300	fax_15310.png	fax_Fahrrad.png	fax_Klebeband.png	ok
60989	06/30/2021 08:53:56	1	54	45106	1120239	1	399	1119700	1122355	1	399	1119700	3	1192	organic	correct	1123571	1	400	1122400	1126470	1	401	1125101	4	988	1127487	1	401	1125101	1131102	1	403	1130500	2	1918	organic	correct	1133051	1	403	1130500	1135184	1	404	1133201	3	431	1135651	1	404	1133201	fou_18966.png	fou_Schmetterling.png	fou_Feige.png	ok
60989	06/30/2021 08:54:17	1	55	45106	1139583	1	406	1138600	1143031	1	407	1141300	2	487	organic	incorrect	1143548	1	407	1141300	1148296	1	409	1146700	2	1165	1149496	1	410	1149400	1153128	1	411	1152100	2	1657	organic	correct	1154811	1	411	1152100	1156760	1	412	1154800	4	703	1157493	1	412	1154800	mom_59641.png	mom_Ei.png	mom_Loewe.png	ok
60989	06/30/2021 08:54:36	1	56	45106	1160642	1	414	1160200	1162675	1	414	1160200	3	1448	inorganic	incorrect	1164174	1	415	1162900	1167640	1	416	1165600	2	587	1168256	1	416	1165600	1172605	1	418	1171000	2	1732	inorganic	correct	1174371	1	419	1173700	1176570	1	420	1176400	3	311	1176903	1	420	1176400	maw_22459.png	maw_Schlauchboot.png	maw_Pingpongschlaeger.png	ok
60989	06/30/2021 08:54:59	1	57	45106	1180069	1	421	1179100	1183334	1	422	1181800	2	563	inorganic	correct	1183934	1	422	1181800	1188383	1	424	1187199	3	502	1188916	1	424	1187199	1193481	1	426	1192600	3	1205	inorganic	correct	1194714	1	426	1192600	1197963	1	427	1195299	4	350	1198346	1	428	1198000	mak_03979.png	mak_Rucksack.png	mak_Socken.png	ok
60989	06/30/2021 08:55:18	1	58	45106	1202378	1	429	1200700	1204694	1	430	1203399	3	580	organic	correct	1205310	1	430	1203399	1208943	1	432	1208800	4	318	1209292	1	432	1208800	1213091	1	432	1208800	3	922	organic	correct	1214057	1	432	1208800	1217090	1	434	1216900	4	630	1217756	1	434	1216900	foe_08514.png	foe_Adler.png	foe_Tannenzapfen.png	ok
60989	06/30/2021 08:55:39	1	59	45106	1221838	1	435	1219599	1224804	1	436	1222300	3	249	organic	correct	1225087	1	437	1225000	1230085	1	438	1227699	4	385	1230502	1	439	1230400	1234117	1	440	1233100	3	1811	organic	incorrect	1235950	1	441	1235799	1238083	1	441	1235799	3	314	1238433	1	441	1235799	foq_17341.png	foq_Pinguin.png	foq_Fenchel.png	ok
60989	06/30/2021 08:55:58	1	60	45106	1242565	1	443	1241199	1244847	1	444	1243899	2	1368	organic	incorrect	1246247	1	444	1243899	1248546	1	445	1246600	2	363	1248946	1	445	1246600	1252828	1	447	1251999	3	1832	organic	correct	1254694	1	447	1251999	1257793	1	449	1257399	3	773	1258592	1	449	1257399	moj_11860.png	moj_Walnuss.png	moj_Blatt.png	ok
60989	06/30/2021 08:56:22	1	61	45106	1262175	1	450	1260099	1265473	1	451	1262800	3	1270	organic	correct	1266773	1	452	1265499	1270339	1	453	1268199	2	239	1270605	1	453	1268199	1275337	1	455	1273599	3	1726	organic	correct	1277086	1	456	1276299	1280518	1	457	1279000	4	645	1281202	1	457	1279000	fop_07937.png	fop_Koala.png	fop_Mango.png	ok
60989	06/30/2021 08:56:42	1	62	45106	1285600	1	459	1284399	1288332	1	460	1287100	2	768	organic	incorrect	1289132	1	460	1287100	1292998	1	462	1292499	3	582	1293614	1	462	1292499	1296346	1	463	1295199	3	1921	organic	correct	1298296	1	464	1297899	1301795	1	465	1300599	2	324	1302144	1	465	1300599	mof_06901.png	mof_Hahn.png	mof_Spaghetti.png	ok
60989	06/30/2021 08:57:00	1	63	45106	1306193	1	467	1305999	1308076	1	467	1305999	2	614	organic	incorrect	1308759	1	467	1305999	1312091	1	469	1311399	3	560	1312691	1	469	1311399	1316956	1	471	1316799	2	1954	organic	correct	1318939	1	471	1316799	1320888	1	472	1319499	4	852	1321771	1	472	1319499	mob_22833.png	mob_Kiwi.png	mob_Igel.png	ok
60989	06/30/2021 08:57:24	1	64	45106	1324304	1	473	1322199	1327236	1	474	1324899	2	895	inorganic	correct	1328152	1	475	1327599	1332484	1	476	1330299	3	298	1332817	1	476	1330299	1337749	1	478	1335699	2	2388	inorganic	correct	1340165	1	479	1338399	1343147	1	480	1341099	4	978	1344147	1	481	1343800	fal_07977.png	fal_Korb.png	fal_Buegeleisen.png	ok
60989	06/30/2021 08:57:43	1	65	45106	1347946	1	482	1346499	1350295	1	483	1349198	3	1218	organic	correct	1351545	1	483	1349198	1353877	1	484	1351899	4	1219	1355127	1	485	1354599	1357809	1	486	1357298	2	1529	organic	correct	1359375	1	486	1357298	1361774	1	487	1359999	4	452	1362258	1	487	1359999	mol_11363.png	mol_Pizza.png	mol_Schimpanse.png	ok
60989	06/30/2021 08:58:02	1	66	45106	1366956	1	489	1365398	1368672	1	490	1368099	2	1179	inorganic	correct	1369888	1	490	1368099	1373404	1	491	1370799	2	532	1373970	1	492	1373498	1377169	1	493	1376199	2	1385	inorganic	correct	1378585	1	493	1376199	1381634	1	495	1381598	4	739	1382401	1	495	1381598	fai_07637.png	fai_Kommode.png	fai_Foehn.png	ok
60989	06/30/2021 08:58:23	1	67	45106	1385516	1	496	1384299	1388365	1	497	1386999	3	975	organic	correct	1389365	1	497	1386999	1393014	1	499	1392399	3	948	1393997	1	499	1392399	1398046	1	501	1397798	2	1739	organic	correct	1399812	1	501	1397798	1402894	1	502	1400498	3	1211	1404127	1	503	1403199	moe_23630.png	moe_Waschbaer.png	moe_Pommes.png	ok
60989	06/30/2021 08:58:42	1	68	45106	1407059	1	504	1405898	1408942	1	505	1408599	2	1063	inorganic	correct	1410058	1	505	1408599	1413874	1	506	1411298	4	276	1414173	1	507	1413998	1418405	1	508	1416699	2	1244	inorganic	correct	1419672	1	509	1419399	1422154	1	510	1422099	4	392	1422571	1	510	1422099	fat_14140.png	fat_Einkaufswagen.png	fat_Kleiderbuegel.png	ok
60989	06/30/2021 08:59:02	1	69	45106	1426253	1	511	1424799	1427902	1	512	1427499	3	311	organic	correct	1428235	1	512	1427499	1432867	1	513	1430199	3	365	1433267	1	514	1432900	1436499	1	515	1435599	2	1214	organic	correct	1437749	1	515	1435599	1441897	1	517	1440999	3	443	1442364	1	517	1440999	fov_15193.png	fov_Zucchini.png	fov_Fisch.png	ok
60989	06/30/2021 08:59:23	1	70	45106	1446096	1	518	1443699	1449078	1	519	1446399	2	1094	organic	incorrect	1450195	1	520	1449099	1452477	1	521	1451799	2	911	1453410	1	521	1451799	1457442	1	523	1457199	2	1752	organic	incorrect	1459242	1	523	1457199	1461757	1	524	1459899	3	314	1462107	1	524	1459899	mos_23223.png	mos_Eintagsfliege.png	mos_Traube.png	ok
60989	06/30/2021 08:59:44	1	71	45106	1466489	1	526	1465299	1468488	1	527	1467999	2	862	inorganic	correct	1469372	1	527	1467999	1472321	1	528	1470699	2	440	1472787	1	528	1470699	1477635	1	530	1476099	2	1954	inorganic	incorrect	1479618	1	531	1478799	1482400	1	532	1481499	2	559	1482984	1	532	1481499	fac_02970.png	fac_Haarbuerste.png	fac_Ohrring.png	ok
60989	06/30/2021 09:00:06	1	72	45106	1487399	1	534	1486899	1490931	1	535	1489599	2	847	organic	incorrect	1491814	1	535	1489599	1494430	1	536	1492299	4	1046	1495513	1	537	1494999	1499695	1	538	1497698	3	2435	organic	incorrect	1502160	1	539	1500399	1504943	1	540	1503099	2	395	1505376	1	540	1503099	foc_02664.png	foc_Eule.png	foc_Brombeere.png	ok
60989	06/30/2021 09:00:26	1	73	45106	1510258	1	542	1508499	1513107	1	543	1511198	2	1441	inorganic	correct	1514573	1	544	1513898	1516656	1	545	1516599	2	1499	1518188	1	545	1516599	1520538	1	546	1519298	2	2229	inorganic	correct	1522787	1	547	1521998	1525236	1	548	1524699	4	280	1525553	1	548	1524699	mas_41937.png	mas_Tisch.png	mas_Bueroklammer.png	ok
60989	06/30/2021 09:00:47	1	74	45106	1530284	1	550	1530099	1532917	1	551	1532799	2	382	inorganic	correct	1533333	1	551	1532799	1536666	1	552	1535498	4	288	1536982	1	552	1535498	1540681	1	553	1538198	3	826	inorganic	correct	1541531	1	554	1540899	1545646	1	555	1543598	4	427	1546096	1	555	1543598	mai_23761.png	mai_Auto.png	mai_Gewehr.png	ok
60989	06/30/2021 09:01:07	1	75	45106	1550528	1	557	1548999	1553993	1	558	1551698	3	694	inorganic	incorrect	1554709	1	559	1554398	1558475	1	560	1557098	3	778	1559291	1	560	1557098	1562057	1	561	1559798	3	1427	inorganic	incorrect	1563507	1	562	1562498	1567205	1	563	1565198	3	251	1567488	1	563	1565198	far_06518.png	far_Giesskanne.png	far_Heissluftballon.png	ok
60989	06/30/2021 09:01:29	1	76	45106	1570854	1	565	1570598	1572920	1	565	1570598	3	528	organic	correct	1573470	1	566	1573298	1577835	1	567	1575998	4	348	1578218	1	567	1575998	1583017	1	569	1581398	3	1799	organic	correct	1584849	1	570	1584098	1587632	1	571	1586798	4	499	1588165	1	571	1586798	moh_07125.png	moh_Birne.png	moh_Muecke.png	ok
60989	06/30/2021 09:01:47	1	77	45106	1592697	1	573	1592198	1595212	1	574	1594898	2	746	organic	incorrect	1595996	1	574	1594898	1598678	1	575	1597598	2	462	1599178	1	575	1597598	1602827	1	576	1600298	2	1992	organic	incorrect	1604859	1	577	1602998	1607025	1	578	1605698	2	505	1607575	1	578	1605698	fot_06092.png	fot_Salat.png	fot_Taube.png	ok
60989	06/30/2021 09:02:08	1	78	45106	1610557	1	579	1608398	1613656	1	580	1611097	2	559	inorganic	correct	1614239	1	581	1613798	1617555	1	582	1616498	2	1248	1618838	1	582	1616498	1621720	1	583	1619198	3	1662	inorganic	correct	1623403	1	584	1621898	1626918	1	585	1624598	2	557	1627502	1	586	1627298	fan_18894.png	fan_Lampe.png	fan_Klavier.png	ok
60989	06/30/2021 09:02:27	1	79	45106	1631950	1	587	1629998	1634199	1	588	1632698	3	1051	organic	correct	1635282	1	588	1632698	1637548	1	589	1635397	2	913	1638498	1	590	1638098	1642097	1	591	1640798	3	1337	organic	correct	1643463	1	591	1640798	1647662	1	593	1646198	3	305	1647995	1	593	1646198	foi_05187.png	foi_Pflanze.png	foi_Apfelkuchen.png	ok
60989	06/30/2021 09:02:47	1	80	45106	1651210	1	594	1648898	1653943	1	595	1651597	2	881	inorganic	correct	1654876	1	596	1654298	1657775	1	597	1656997	4	278	1658091	1	597	1656997	1662507	1	599	1662398	3	1924	inorganic	incorrect	1664456	1	599	1662398	1666155	1	600	1665097	3	345	1666538	1	600	1665097	fap_17119.png	fap_Knopf.png	fap_Kissen.png	ok
60989	06/30/2021 09:03:09	1	81	45106	1671087	1	602	1670498	1673586	1	603	1673197	3	1398	inorganic	incorrect	1675019	1	603	1673197	1678018	1	604	1675897	2	608	1678651	1	605	1678598	1682866	1	606	1681297	3	1674	inorganic	incorrect	1684566	1	607	1683997	1687631	1	608	1686698	2	343	1687998	1	608	1686698	maj_01546.png	maj_Computermaus.png	maj_Krawatte.png	ok
60989	06/30/2021 09:03:29	1	82	45106	1692596	1	610	1692097	1695979	1	611	1694798	2	861	inorganic	correct	1696862	1	611	1694798	1700077	1	612	1697497	2	1051	1701160	1	613	1700197	1704859	1	614	1702898	3	1783	inorganic	incorrect	1706692	1	615	1705597	1708908	1	616	1708297	2	1563	1710507	1	616	1708297	mao_19000.png	mao_Stempel.png	mao_Kegel.png	ok
60989	06/30/2021 09:03:51	1	83	45106	1713339	1	617	1710997	1716222	1	618	1713697	2	1518	organic	incorrect	1717771	1	619	1716397	1721070	1	620	1719097	3	1397	1722503	1	621	1721797	1725052	1	622	1724497	3	2090	organic	correct	1727168	1	622	1724497	1729684	1	623	1727197	2	419	1730134	1	624	1729897	mot_69770.png	mot_Hotdog.png	mot_Bison.png	ok
60989	06/30/2021 09:04:10	1	84	45106	1734449	1	625	1732597	1737265	1	626	1735297	3	1036	organic	correct	1738331	1	627	1737997	1742580	1	628	1740697	3	681	1743296	1	628	1740697	1746312	1	630	1746097	3	1715	organic	correct	1748061	1	630	1746097	1750044	1	631	1748797	3	482	1750560	1	631	1748797	foj_08937.png	foj_Waffel.png	foj_Rose.png	ok
60989	06/30/2021 09:04:29	1	85	45106	1753759	1	632	1751497	1756358	1	633	1754197	2	1443	inorganic	correct	1757824	1	634	1756896	1760823	1	635	1759597	3	294	1761140	1	635	1759597	1765772	1	637	1764996	2	2481	inorganic	correct	1768288	1	638	1767697	1769554	1	638	1767697	4	501	1770087	1	638	1767697	faw_14685.png	faw_Hufeisen.png	faw_Kuechenmaschine.png	ok
60989	06/30/2021 09:04:48	1	86	45106	1772936	1	639	1770397	1775552	1	640	1773096	2	376	organic	incorrect	1775952	1	641	1775797	1779550	1	642	1778497	3	268	1779850	1	642	1778497	1783949	1	644	1783897	3	2302	organic	correct	1786282	1	644	1783897	1787998	1	645	1786597	3	1385	1789414	1	646	1789296	mog_03277.png	mog_Pilz.png	mog_Fledermaus.png	ok
60989	06/30/2021 09:05:06	1	87	45106	1791430	1	646	1789296	1793079	1	647	1791997	2	1292	inorganic	correct	1794395	1	647	1791997	1797694	1	649	1797396	4	256	1797978	1	649	1797396	1801293	1	650	1800097	3	1962	inorganic	correct	1803292	1	651	1802797	1805742	1	652	1805496	3	297	1806075	1	652	1805496	mau_58144.png	mau_Wasserventil.png	mau_Leiter.png	ok
60989	06/30/2021 09:05:26	1	88	45106	1809740	1	653	1808197	1811940	1	654	1810896	2	1210	organic	incorrect	1813172	1	654	1810896	1815705	1	655	1813596	3	215	1815955	1	655	1813596	1820770	1	657	1818996	3	2334	organic	incorrect	1823136	1	658	1821696	1825135	1	659	1824397	2	519	1825685	1	659	1824397	mou_06524.png	mou_Croissant.png	mou_Kraehe.png	ok
60989	06/30/2021 09:05:47	1	89	45106	1830017	1	661	1829796	1831800	1	661	1829796	2	1901	inorganic	correct	1833732	1	662	1832497	1836848	1	663	1835196	2	292	1837164	1	663	1835196	1840480	1	664	1837896	2	2304	inorganic	incorrect	1842812	1	665	1840597	1845845	1	666	1843296	2	404	1846278	1	667	1845996	mae_36426.png	mae_Schach.png	mae_Taschenrechner.png	ok
60989	06/30/2021 09:06:07	1	90	45106	1850593	1	668	1848697	1853892	1	669	1851396	2	596	inorganic	correct	1854542	1	670	1854096	1858541	1	671	1856797	2	496	1859074	1	671	1856797	1863272	1	673	1862196	3	1424	inorganic	correct	1864722	1	673	1862196	1867121	1	674	1864896	4	431	1867587	1	674	1864896	fab_06286.png	fab_Kinderwagen.png	fab_Staubsauger.png	ok
60989	06/30/2021 09:06:26	1	91	45106	1871353	1	676	1870296	1874019	1	677	1872996	3	703	organic	correct	1874752	1	677	1872996	1877967	1	678	1875696	3	268	1878267	1	678	1875696	1881599	1	680	1881096	2	1511	organic	correct	1883132	1	680	1881096	1886781	1	682	1886496	3	322	1887131	1	682	1886496	for_15880.png	for_Mandel.png	for_Seehund.png	ok
60989	06/30/2021 09:06:46	1	92	45106	1890297	1	683	1889196	1892179	1	684	1891896	3	1076	organic	correct	1893279	1	684	1891896	1896411	1	685	1894596	4	265	1896711	1	685	1894596	1899810	1	686	1897296	2	2835	organic	correct	1902692	1	687	1899996	1904708	1	688	1902696	3	941	1905675	1	689	1905396	mon_69587.png	mon_Fuchs.png	mon_Kartoffel.png	ok
60989	06/30/2021 09:07:07	1	93	45106	1909423	1	690	1908096	1911973	1	691	1910796	2	926	inorganic	correct	1912922	1	691	1910796	1917004	1	693	1916196	3	290	1917321	1	693	1916196	1921853	1	695	1921596	2	1739	inorganic	incorrect	1923619	1	695	1921596	1926368	1	696	1924296	3	243	1926634	1	696	1924296	fag_06551.png	fag_Portemonnaie.png	fag_Geschenk.png	ok
60989	06/30/2021 09:07:27	1	94	45106	1930650	1	698	1929696	1933299	1	699	1932396	2	1243	inorganic	correct	1934565	1	699	1932396	1937414	1	700	1935095	3	386	1937831	1	701	1937796	1941013	1	702	1940496	2	1693	inorganic	incorrect	1942729	1	702	1940496	1946061	1	704	1945896	3	259	1946344	1	704	1945896	mal_20552.png	mal_Kugelschreiber.png	mal_Drucker.png	ok
60989	06/30/2021 09:07:48	1	95	45106	1951359	1	706	1951295	1953109	1	706	1951295	2	1323	organic	incorrect	1954475	1	707	1953996	1957757	1	708	1956696	2	259	1958040	1	708	1956696	1963039	1	710	1962096	2	1678	organic	incorrect	1964738	1	710	1962096	1966721	1	711	1964796	2	599	1967354	1	711	1964796	foa_00426.png	foa_Marienkaefer.png	foa_Aubergine.png	ok
60989	06/30/2021 09:08:06	1	96	45106	1971436	1	713	1970196	1974068	1	714	1972895	3	1069	inorganic	incorrect	1975168	1	714	1972895	1977984	1	715	1975595	2	875	1978883	1	716	1978296	1982465	1	717	1980995	3	1887	inorganic	correct	1984381	1	718	1983695	1986914	1	719	1986396	4	599	1987547	1	719	1986396	mat_23754.png	mat_Feuerzeug.png	mat_Helm.png	ok
