ID	DateTime	Run	Delayed_Retrieval_Trial	First_Pulse_Time	FaceRecog_OnsetTime	FaceRecog_OnsetTimeUncertainty	FaceRecog_fMRI_Pulse	FaceRecog_fMRI_PulseTime	Assoc_Retrieval_OnsetTime	Assoc_Retrieval_OnsetTimeUncertainty	Assoc_Retrieval_fMRI_Pulse	Assoc_Retrieval_fMRI_PulseTime	Assoc_Retrieval_Pressed_Button	Assoc_Retrieval_RT	Assoc_Retrieval_Response_Category	Assoc_Retrieval_Accuracy	Assoc_Retrieval_Feedback_OnsetTime	Assoc_Retrieval_Feedback_OnsetTimeUncertainty	Assoc_Retrieval_Feedback_fMRI_Pulse	Assoc_Retrieval_Feedback_fMRI_PulseTime	Retrieval_consc_Rating_OnsetTime	Retrieval_consc_Rating_OnsetTimeUncertainty	Retrieval_consc_Rating_fMRI_Pulse	Retrieval_consc_Rating_fMRI_PulseTime	Retrieval_consc_Rating_Pressed_Button	Retrieval_consc_Rating_RT	Retrieval_consc_Rating_Feedback_OnsetTime	Retrieval_consc_Rating_Feedback_OnsetTimeUncertainty	Retrieval_consc_Rating_Feedback_fMRI_Pulse	Retrieval_consc_Rating_Feedback_fMRI_PulseTime	ForcedChoice_OnsetTime	ForcedChoice_OnsetTimeUncertainty	ForcedChoice_fMRI_Pulse	ForcedChoice_fMRI_PulseTime	ForcedChoice_Pressed_Button	ForcedChoice_RT	ForcedChoice_Response_Category	ForcedChoice_Accuracy	ForcedChoice_Feedback_OnsetTime	ForcedChoice_Feedback_OnsetTimeUncertainty	ForcedChoice_Feedback_fMRI_Pulse	ForcedChoice_Feedback_fMRI_PulseTime	Recognition_consc_Rating_OnsetTime	Recognition_consc_Rating_OnsetTimeUncertainty	Recognition_consc_Rating_fMRI_Pulse	Recognition_consc_Rating_fMRI_PulseTime	Recognition_consc_Rating_Pressed_Button	Recognition_consc_Rating_RT	Recognition_consc_Rating_Feedback_OnsetTime	Recognition_consc_Rating_Feedback_OnsetTimeUncertainty	Recognition_consc_Rating_Feedback_fMRI_Pulse	Recognition_consc_Rating_Feedback_fMRI_PulseTime	Presented_Person	Presented_Target	Presented_Lure	TrialStatus
61350	08/04/2021 16:15:19	1	1	46194	59679	1	5	56995	62762	1	7	62394	2	522	organic	incorrect	63311	1	7	62394	66910	1	8	65095	3	381	67327	1	8	65095	71559	1	10	70494	3	2524	organic	incorrect	74124	1	11	73195	75941	1	12	75894	3	1627	77590	1	12	75894	mon_65798.png	mon_Fuchs.png	mon_Kartoffel.png	ok
61350	08/04/2021 16:15:39	1	2	46194	80756	1	13	78594	83305	1	14	81295	2	287	organic	incorrect	83621	1	14	81295	88086	1	16	86694	3	857	88969	1	16	86694	93035	1	18	92094	2	1454	organic	correct	94518	1	18	92094	97283	1	19	94794	4	243	97550	1	20	97494	mou_01862.png	mou_Kraehe.png	mou_Croissant.png	ok
61350	08/04/2021 16:15:59	1	3	46194	101249	1	21	100194	104548	1	22	102894	3	847	inorganic	incorrect	105431	1	22	102894	108430	1	24	108294	2	437	108896	1	24	108294	113295	1	25	110994	3	2796	inorganic	correct	116127	1	26	113694	116927	1	27	116394	3	892	117843	1	27	116394	map_41499.png	map_Pfeife.png	map_Globus.png	ok
61350	08/04/2021 16:16:19	1	4	46194	121225	1	28	119094	122941	1	29	121794	2	1822	inorganic	correct	124807	1	30	124494	127057	1	30	124494	2	298	127390	1	31	127194	131655	1	32	129894	2	2665	inorganic	incorrect	134354	1	33	132594	136520	1	34	135293	2	185	136737	1	34	135293	mac_59169.png	mac_Medaille.png	mac_Dartpfeil.png	ok
61350	08/04/2021 16:16:41	1	5	46194	141252	1	36	140694	144767	1	37	143393	2	798	organic	incorrect	145600	1	37	143393	149732	1	39	148794	2	922	150682	1	39	148794	154881	1	41	154194	2	2760	organic	correct	157663	1	42	156894	158629	1	42	156894	2	755	159412	1	42	156894	mob_00760.png	mob_Kiwi.png	mob_Igel.png	ok
61350	08/04/2021 16:17:04	1	6	46194	163228	1	44	162294	166093	1	45	164994	2	301	inorganic	correct	166427	1	45	164994	170975	1	47	170394	4	208	171208	1	47	170394	176207	1	49	175793	2	1342	inorganic	correct	177573	1	49	175793	180605	1	50	178494	3	304	180938	1	50	178494	fab_06018.png	fab_Staubsauger.png	fab_Kinderwagen.png	ok
61350	08/04/2021 16:17:23	1	7	46194	185370	1	52	183893	187869	1	53	186594	3	1955	inorganic	incorrect	189852	1	54	189293	192068	1	55	191993	2	964	193068	1	55	191993	196816	1	56	194694	2	1312	inorganic	correct	198149	1	57	197393	200915	1	58	200093	4	345	201298	1	58	200093	mal_04470.png	mal_Drucker.png	mal_Kugelschreiber.png	ok
61350	08/04/2021 16:17:45	1	8	46194	204847	1	59	202794	208229	1	61	208193	3	541	organic	correct	208796	1	61	208193	212461	1	62	210894	4	308	212794	1	62	210894	217193	1	64	216293	3	954	organic	correct	218176	1	64	216293	222258	1	66	221693	4	301	222608	1	66	221693	mom_59361.png	mom_Loewe.png	mom_Ei.png	ok
61350	08/04/2021 16:18:04	1	9	46194	226640	1	67	224393	228472	1	68	227093	2	1672	inorganic	correct	230172	1	69	229793	232538	1	70	232493	2	286	232854	1	70	232493	237303	1	71	235193	3	1977	inorganic	incorrect	239302	1	72	237893	241768	1	73	240593	3	1420	243217	1	73	240593	fat_12032.png	fat_Kleiderbuegel.png	fat_Einkaufswagen.png	ok
61350	08/04/2021 16:18:24	1	10	46194	246050	1	75	245993	247733	1	75	245993	3	1958	inorganic	incorrect	249715	1	76	248693	252414	1	77	251393	3	229	252681	1	77	251393	256263	1	78	254093	2	2149	inorganic	correct	258446	1	79	256793	260378	1	80	259493	2	724	261128	1	80	259493	mao_11634.png	mao_Kegel.png	mao_Stempel.png	ok
61350	08/04/2021 16:18:42	1	11	46194	265493	1	82	264892	267409	1	82	264892	3	2143	organic	correct	269575	1	83	267593	271258	1	84	270293	3	1098	272408	1	84	270293	275090	1	85	272992	0	0	organic	miss	275090	1	86	275693	279439	1	87	278393	2	420	279888	1	87	278393	for_15187.png	for_Seehund.png	for_Mandel.png	ok
61350	08/04/2021 16:19:02	1	12	46194	283970	1	89	283793	287019	1	90	286493	3	817	inorganic	incorrect	287869	1	90	286493	290835	1	91	289192	4	223	291085	1	91	289192	294550	1	92	291893	3	2097	inorganic	correct	296683	1	93	294593	300065	1	95	299993	2	515	300615	1	95	299993	mau_49693.png	mau_Leiter.png	mau_Wasserventil.png	ok
61350	08/04/2021 16:19:21	1	13	46194	304130	1	96	302693	306729	1	97	305392	2	425	inorganic	correct	307179	1	97	305392	310195	1	98	308093	3	1780	312011	1	99	310792	314477	1	100	313493	2	1923	inorganic	correct	316426	1	101	316193	318909	1	101	316193	2	216	319159	1	102	318892	faw_14215.png	faw_Kuechenmaschine.png	faw_Hufeisen.png	ok
61350	08/04/2021 16:19:40	1	14	46194	322374	1	103	321593	325656	1	104	324293	2	437	organic	incorrect	326123	1	104	324293	329955	1	106	329693	4	296	330288	1	106	329693	333754	1	107	332393	0	0	organic	miss	333754	1	108	335092	338185	1	109	337792	2	1756	339968	1	109	337792	foq_16799.png	foq_Pinguin.png	foq_Fenchel.png	ok
61350	08/04/2021 16:20:00	1	15	46194	341751	1	110	340493	343667	1	111	343192	3	570	inorganic	incorrect	344267	1	111	343192	348865	1	113	348593	4	297	349198	1	113	348593	352847	1	114	351292	2	2562	inorganic	correct	355430	1	115	353993	357479	1	116	356692	4	304	357812	1	116	356692	mak_00987.png	mak_Socken.png	mak_Rucksack.png	ok
61350	08/04/2021 16:20:18	1	16	46194	361561	1	117	359392	364593	1	118	362093	2	833	organic	incorrect	365460	1	119	364792	368592	1	120	367492	2	325	368958	1	120	367492	372357	1	121	370193	3	1608	organic	incorrect	373990	1	122	372892	376056	1	123	375592	4	2365	378455	1	124	378293	fok_09378.png	fok_Kaenguruh.png	fok_Palme.png	ok
61350	08/04/2021 16:20:38	1	17	46194	380171	1	124	378293	382770	1	125	380992	2	1252	organic	incorrect	384053	1	126	383692	386969	1	127	386393	3	305	387302	1	127	386393	391284	1	128	389092	3	1932	organic	correct	393250	1	129	391792	395050	1	130	394492	4	823	395899	1	130	394492	fou_17118.png	fou_Schmetterling.png	fou_Feige.png	ok
61350	08/04/2021 16:20:58	1	18	46194	399848	1	131	397192	402447	1	132	399892	2	283	inorganic	correct	402764	1	133	402592	407495	1	134	405292	4	347	407879	1	134	405292	411577	1	136	410692	2	486	inorganic	correct	412094	1	136	410692	415293	1	137	413392	4	270	415593	1	137	413392	faj_07783.png	faj_Schuh.png	faj_Parfuem.png	ok
61350	08/04/2021 16:21:18	1	19	46194	419525	1	139	418792	422140	1	140	421492	2	248	inorganic	correct	422440	1	140	421492	425806	1	141	424192	4	244	426073	1	141	424192	430921	1	143	429592	2	955	inorganic	correct	431904	1	143	429592	434986	1	144	432292	4	248	435269	1	145	434992	fac_02146.png	fac_Haarbuerste.png	fac_Ohrring.png	ok
61350	08/04/2021 16:21:38	1	20	46194	439718	1	146	437692	443133	1	148	443092	3	618	inorganic	incorrect	443783	1	148	443092	447249	1	149	445792	3	281	447565	6	149	445792	451664	1	151	451192	3	2142	inorganic	correct	453830	1	151	451192	455929	1	152	453892	3	318	456279	1	152	453892	fax_14883.png	fax_Fahrrad.png	fax_Klebeband.png	ok
61350	08/04/2021 16:21:56	1	21	46194	459428	1	154	459292	461377	1	154	459292	2	339	inorganic	correct	461744	1	154	459292	465059	1	156	464691	4	259	465343	1	156	464691	469041	1	157	467392	2	410	inorganic	correct	469491	1	157	467392	473640	1	159	472791	4	317	473990	1	159	472791	fap_16329.png	fap_Kissen.png	fap_Knopf.png	ok
61350	08/04/2021 16:22:13	1	22	46194	477905	1	160	475492	479771	1	161	478192	3	1531	inorganic	incorrect	481337	1	162	480891	483620	1	163	483592	2	402	484053	1	163	483592	487185	1	164	486291	3	2044	inorganic	incorrect	489251	1	165	488991	490951	1	165	488991	3	401	491384	1	165	488991	fan_17286.png	fan_Klavier.png	fan_Lampe.png	ok
61350	08/04/2021 16:22:34	1	23	46194	494766	1	167	494391	498198	1	168	497091	3	476	organic	correct	498698	1	168	497091	502513	1	169	499792	3	305	502847	1	170	502491	506929	1	171	505191	3	2196	organic	correct	509161	1	172	507892	510577	1	172	507892	3	2265	512877	1	173	510591	mog_03090.png	mog_Pilz.png	mog_Fledermaus.png	ok
61350	08/04/2021 16:22:54	1	24	46194	515459	1	174	513291	517492	1	175	515992	3	818	inorganic	incorrect	518358	1	175	515992	522690	1	177	521391	4	1473	524189	1	178	524092	526322	1	178	524092	2	2723	inorganic	correct	529071	1	179	526791	530871	1	180	529491	4	379	531287	1	180	529491	fai_07494.png	fai_Kommode.png	fai_Foehn.png	ok
61350	08/04/2021 16:23:15	1	25	46194	535819	1	182	534891	537868	1	183	537591	2	243	inorganic	correct	538135	1	183	537591	542300	1	184	540291	4	280	542617	1	184	540291	546698	1	186	545691	3	1942	inorganic	correct	548665	1	187	548391	552063	1	188	551091	4	680	552780	1	188	551091	mae_01010.png	mae_Schach.png	mae_Taschenrechner.png	ok
61350	08/04/2021 16:23:35	1	26	46194	557095	1	190	556491	559844	1	191	559191	2	458	organic	incorrect	560327	1	191	559191	563793	1	192	561891	4	296	564126	1	192	561891	568824	1	194	567291	2	1447	organic	correct	570324	1	195	569991	572540	1	195	569991	4	232	572806	1	196	572691	moh_06446.png	moh_Birne.png	moh_Muecke.png	ok
61350	08/04/2021 16:23:56	1	27	46194	576905	1	197	575391	579254	1	198	578090	3	741	organic	correct	580021	1	198	578090	583319	1	199	580791	2	218	583569	1	200	583491	588434	1	201	586191	3	1621	organic	correct	590084	1	202	588891	593966	1	203	591591	2	205	594199	1	203	591591	mof_02408.png	mof_Hahn.png	mof_Spaghetti.png	ok
61350	08/04/2021 16:24:16	1	28	46194	598264	1	205	596991	600514	1	206	599691	3	498	inorganic	incorrect	601047	1	206	599691	605762	1	208	605091	2	300	606095	1	208	605091	609627	1	209	607791	3	1521	inorganic	correct	611177	1	210	610490	614742	1	211	613191	4	274	615042	1	211	613191	mas_41366.png	mas_Bueroklammer.png	mas_Tisch.png	ok
61350	08/04/2021 16:24:36	1	29	46194	618208	1	212	615891	621523	1	214	621291	2	445	organic	incorrect	621990	1	214	621291	626222	1	215	623990	4	262	626522	1	215	623990	629654	1	217	629391	3	1633	organic	correct	631320	1	217	629391	633386	1	218	632090	3	990	634402	1	218	632090	mot_69374.png	mot_Hotdog.png	mot_Bison.png	ok
61350	08/04/2021 16:24:54	1	30	46194	638068	1	220	637491	639634	1	220	637491	2	1590	organic	incorrect	641250	1	221	640190	643982	1	222	642890	4	280	644299	1	222	642890	648331	1	224	648290	2	1808	organic	incorrect	650164	1	224	648290	652280	1	225	650991	2	1099	653413	1	225	650991	fov_15046.png	fov_Fisch.png	fov_Zucchini.png	ok
61350	08/04/2021 16:25:16	1	31	46194	656328	1	226	653691	658344	1	227	656390	2	281	inorganic	correct	658661	1	227	656390	663043	1	229	661790	4	695	663776	1	229	661790	667824	1	231	667191	3	937	inorganic	correct	668807	1	231	667191	673356	1	233	672591	4	311	673706	1	233	672591	mat_23275.png	mat_Helm.png	mat_Feuerzeug.png	ok
61350	08/04/2021 16:25:37	1	32	46194	678171	1	235	677990	680187	1	235	677990	2	885	organic	incorrect	681103	1	236	680690	685335	1	237	683392	3	363	685735	1	237	683392	690367	1	239	688790	2	2327	organic	incorrect	692716	1	240	691491	694016	1	240	691491	2	1930	695982	1	241	694190	moj_11821.png	moj_Blatt.png	moj_Walnuss.png	ok
61350	08/04/2021 16:25:59	1	33	46194	699180	1	242	696890	702146	1	243	699591	2	502	organic	incorrect	702679	1	244	702290	706045	1	245	704990	3	250	706328	1	245	704990	711143	1	247	710390	0	0	organic	miss	711143	1	248	713090	715642	1	248	713090	3	901	716591	1	249	715790	moe_02012.png	moe_Pommes.png	moe_Waschbaer.png	ok
61350	08/04/2021 16:26:18	1	34	46194	720540	1	250	718491	722922	1	251	721190	2	253	inorganic	correct	723206	1	251	721190	726338	1	252	723890	4	317	726688	1	253	726590	730753	1	254	729291	3	1905	inorganic	correct	732686	1	255	731990	736051	1	256	734691	4	456	736535	1	256	734691	maj_01545.png	maj_Computermaus.png	maj_Krawatte.png	ok
61350	08/04/2021 16:26:39	1	35	46194	740033	1	257	737391	742466	1	258	740091	3	321	organic	correct	742816	1	258	740091	746764	1	260	745491	4	225	747014	1	260	745491	750480	1	261	748191	2	471	organic	correct	750980	1	262	750891	756061	1	263	753590	4	280	756378	1	264	756291	foe_08236.png	foe_Adler.png	foe_Tannenzapfen.png	ok
61350	08/04/2021 16:27:00	1	36	46194	761026	1	265	758991	763509	1	266	761690	3	1239	inorganic	incorrect	764792	1	267	764391	767741	1	268	767091	3	214	768007	1	268	767091	772389	1	269	769790	2	1325	inorganic	correct	773739	1	270	772491	777487	1	271	775191	4	233	777754	1	271	775191	maw_04767.png	maw_Pingpongschlaeger.png	maw_Schlauchboot.png	ok
61350	08/04/2021 16:27:19	1	37	46194	781769	1	273	780591	784368	1	274	783291	2	249	inorganic	correct	784652	1	274	783291	787717	1	275	785990	4	311	788050	1	275	785990	791133	1	276	788691	3	943	inorganic	correct	792099	1	277	791391	796598	1	278	794090	4	270	796897	1	279	796791	mai_06530.png	mai_Gewehr.png	mai_Auto.png	ok
61350	08/04/2021 16:27:40	1	38	46194	801179	1	280	799490	802779	1	281	802190	2	599	organic	incorrect	803412	1	281	802190	807760	1	283	807590	4	455	808244	1	283	807590	812626	1	284	810290	2	1660	organic	correct	814325	1	285	812991	817790	1	286	815690	3	271	818090	1	286	815690	foj_08220.png	foj_Waffel.png	foj_Rose.png	ok
61350	08/04/2021 16:28:01	1	39	46194	821772	1	288	821091	823688	1	288	821091	2	606	organic	incorrect	824322	1	289	823790	828420	1	290	826490	3	483	828937	1	290	826490	833735	1	292	831890	2	1570	organic	incorrect	835335	1	293	834590	839200	1	294	837290	4	233	839466	1	294	837290	foi_03389.png	foi_Pflanze.png	foi_Apfelkuchen.png	ok
61350	08/04/2021 16:28:20	1	40	46194	843215	1	296	842690	845281	1	296	842690	2	1211	inorganic	correct	846514	1	297	845390	848930	1	298	848090	3	585	849546	1	298	848090	854261	1	300	853490	3	1911	inorganic	correct	856194	1	300	853490	858243	1	301	856190	2	251	858527	1	301	856190	fag_06539.png	fag_Portemonnaie.png	fag_Geschenk.png	ok
61350	08/04/2021 16:28:38	1	41	46194	861809	1	303	861590	863892	1	303	861590	3	1301	organic	correct	865241	1	304	864290	867707	1	305	866990	4	279	868024	1	305	866990	871656	1	306	869690	2	569	organic	correct	872255	1	306	869690	875388	1	308	875090	4	262	875688	1	308	875090	mol_07679.png	mol_Pizza.png	mol_Schimpanse.png	ok
61350	08/04/2021 16:28:58	1	42	46194	879670	1	309	877790	881386	1	310	880490	2	316	organic	incorrect	881736	1	310	880490	886734	1	312	885890	3	236	887000	1	312	885890	890349	1	313	888590	2	1433	organic	correct	891815	1	314	891289	895398	1	315	893990	2	215	895648	1	315	893990	foa_00207.png	foa_Aubergine.png	foa_Marienkaefer.png	ok
61350	08/04/2021 16:29:17	1	43	46194	899813	1	317	899389	902579	1	318	902090	3	790	organic	correct	903395	1	318	902090	906327	1	319	904790	2	243	906594	1	319	904790	910409	1	321	910190	2	1412	organic	correct	911859	1	321	910190	915458	1	322	912890	3	248	915757	1	323	915589	fop_00621.png	fop_Mango.png	fop_Koala.png	ok
61350	08/04/2021 16:29:37	1	44	46194	918840	1	324	918290	920406	1	324	918290	2	907	inorganic	correct	921339	1	325	920990	925254	1	326	923689	4	313	925604	1	326	923689	929919	1	328	929089	2	394	inorganic	correct	930336	1	328	929089	934834	1	330	934490	4	480	935351	1	330	934490	far_00736.png	far_Giesskanne.png	far_Heissluftballon.png	ok
61350	08/04/2021 16:29:58	1	45	46194	938900	1	331	937189	942065	1	332	939889	3	1459	organic	correct	943548	1	333	942590	946514	1	334	945289	2	439	946980	1	334	945289	950662	1	335	947989	2	2189	organic	correct	952878	1	336	950690	955644	1	337	953389	3	271	955944	1	337	953389	foc_02157.png	foc_Eule.png	foc_Brombeere.png	ok
61350	08/04/2021 16:30:20	1	46	46194	959909	1	339	958790	963108	1	340	961489	3	1271	organic	correct	964424	1	341	964189	968240	1	342	966890	3	211	968473	1	342	966890	971705	1	343	969589	3	1801	organic	incorrect	973538	1	344	972289	976670	1	345	974989	4	261	976953	1	345	974989	mos_20953.png	mos_Eintagsfliege.png	mos_Traube.png	ok
61350	08/04/2021 16:30:36	1	47	46194	981435	1	347	980389	983351	1	348	983089	2	2224	inorganic	correct	985601	1	348	983089	987117	1	349	985789	3	255	987400	1	349	985789	990765	1	350	988489	3	2314	inorganic	correct	993115	1	351	991189	994481	1	352	993889	3	845	995364	1	352	993889	fal_07906.png	fal_Korb.png	fal_Buegeleisen.png	ok
61350	08/04/2021 16:30:58	1	48	46194	998246	1	353	996589	1001179	1	354	999289	3	1446	organic	correct	1002661	1	355	1001989	1006394	1	356	1004690	3	163	1006593	1	356	1004690	1010742	1	358	1010089	2	1907	organic	incorrect	1012691	1	358	1010089	1015274	1	359	1012789	2	1965	1017273	1	360	1015489	fot_00797.png	fot_Salat.png	fot_Taube.png	ok
61350	08/04/2021 16:31:18	1	49	46194	1019572	1	361	1018189	1022238	1	362	1020889	3	262	organic	correct	1022538	1	362	1020889	1027336	1	364	1026289	4	463	1027836	1	364	1026289	1031218	1	365	1028989	3	725	organic	correct	1031968	1	366	1031689	1034867	1	367	1034389	4	187	1035084	1	367	1034389	mou_06524.png	mou_Croissant.png	mou_Kraehe.png	ok
61350	08/04/2021 16:31:36	1	50	46194	1039732	1	368	1037089	1041482	1	369	1039789	2	339	organic	incorrect	1041848	1	369	1039789	1045730	1	371	1045189	2	249	1046014	1	371	1045189	1050195	1	372	1047889	2	1386	organic	incorrect	1051612	1	373	1050589	1054144	1	374	1053289	3	1667	1055844	1	374	1053289	mon_69587.png	mon_Kartoffel.png	mon_Fuchs.png	ok
61350	08/04/2021 16:31:57	1	51	46194	1058126	1	375	1055989	1061558	1	377	1061389	2	766	inorganic	correct	1062375	1	377	1061389	1065090	1	378	1064089	3	594	1065707	1	378	1064089	1068706	1	379	1066788	3	2148	inorganic	incorrect	1070888	1	380	1069489	1073854	1	381	1072189	2	275	1074154	1	381	1072189	map_49576.png	map_Globus.png	map_Pfeife.png	ok
61350	08/04/2021 16:32:17	1	52	46194	1078519	1	383	1077589	1080935	1	384	1080289	3	1369	inorganic	incorrect	1082335	1	384	1080289	1085517	1	385	1082988	3	189	1085733	1	386	1085689	1090299	1	387	1088389	3	1544	inorganic	correct	1091865	1	388	1091088	1094480	1	389	1093789	4	272	1094780	1	389	1093789	mac_59752.png	mac_Dartpfeil.png	mac_Medaille.png	ok
61350	08/04/2021 16:32:36	1	53	46194	1098413	1	390	1096489	1100262	1	391	1099188	2	231	inorganic	correct	1100528	1	391	1099188	1103811	1	392	1101889	4	682	1104527	1	392	1101889	1107326	1	394	1107288	2	349	inorganic	correct	1107709	1	394	1107288	1112624	1	395	1109989	4	265	1112941	1	396	1112688	mal_20552.png	mal_Kugelschreiber.png	mal_Drucker.png	ok
61350	08/04/2021 16:32:57	1	54	46194	1117973	1	397	1115388	1121321	1	399	1120788	3	337	organic	correct	1121688	1	399	1120788	1125337	1	400	1123488	4	229	1125603	1	400	1123488	1130302	1	402	1128888	3	2686	organic	correct	1133018	1	403	1131588	1135417	1	404	1134289	2	1685	1137133	1	405	1136988	mob_22833.png	mob_Igel.png	mob_Kiwi.png	ok
61350	08/04/2021 16:33:16	1	55	46194	1138766	1	405	1136988	1141048	1	406	1139688	2	317	organic	incorrect	1141398	1	406	1139688	1145480	1	408	1145088	3	280	1145797	1	408	1145088	1150178	1	409	1147788	2	524	organic	correct	1150728	1	410	1150488	1153994	1	411	1153188	4	200	1154227	1	411	1153188	mom_59641.png	mom_Ei.png	mom_Loewe.png	ok
61350	08/04/2021 16:33:37	1	56	46194	1158176	1	412	1155888	1160192	1	413	1158588	2	263	inorganic	correct	1160508	1	413	1158588	1165373	1	415	1163988	3	276	1165673	1	415	1163988	1169422	1	417	1169388	2	981	inorganic	correct	1170438	1	417	1169388	1173854	1	418	1172088	2	291	1174170	1	418	1172088	fab_06286.png	fab_Kinderwagen.png	fab_Staubsauger.png	ok
61350	08/04/2021 16:34:00	1	57	46194	1178502	1	420	1177488	1181801	1	421	1180188	3	446	inorganic	incorrect	1182284	1	421	1180188	1187116	1	423	1185588	3	209	1187349	1	423	1185588	1191898	1	425	1190988	2	2233	inorganic	incorrect	1194164	1	426	1193688	1196596	1	427	1196387	2	202	1196829	1	427	1196387	mau_58144.png	mau_Wasserventil.png	mau_Leiter.png	ok
61350	08/04/2021 16:34:20	1	58	46194	1201744	1	428	1199088	1204010	1	429	1201788	2	1795	inorganic	correct	1205843	1	430	1204487	1209258	1	431	1207188	2	284	1209592	1	431	1207188	1214557	1	433	1212587	3	1678	inorganic	correct	1216256	1	434	1215288	1218672	1	435	1217988	4	293	1218989	1	435	1217988	fat_14140.png	fat_Einkaufswagen.png	fat_Kleiderbuegel.png	ok
61350	08/04/2021 16:34:41	1	59	46194	1222121	1	436	1220687	1224353	1	437	1223388	3	527	organic	correct	1224903	1	437	1223388	1229668	1	439	1228787	3	1995	1231701	1	440	1231488	1234750	1	441	1234188	3	1617	organic	correct	1236399	1	441	1234188	1238699	1	442	1236887	3	384	1239115	1	442	1236887	for_15880.png	for_Mandel.png	for_Seehund.png	ok
61350	08/04/2021 16:35:02	1	60	46194	1243297	1	444	1242287	1246279	1	445	1244987	3	2070	inorganic	incorrect	1248379	1	446	1247688	1251244	1	447	1250387	2	269	1251544	1	447	1250387	1254743	1	448	1253087	2	1072	inorganic	incorrect	1255843	1	449	1255788	1258758	1	450	1258487	3	1281	1260091	1	450	1258487	mao_19000.png	mao_Stempel.png	mao_Kegel.png	ok
61350	08/04/2021 16:35:22	1	61	46194	1263707	1	451	1261187	1265589	1	452	1263888	2	367	inorganic	correct	1265989	1	452	1263888	1270821	1	454	1269287	3	241	1271088	1	454	1269287	1274820	1	456	1274687	3	2357	inorganic	incorrect	1277202	1	456	1274687	1279551	1	457	1277387	2	218	1279801	1	457	1277387	faw_14685.png	faw_Hufeisen.png	faw_Kuechenmaschine.png	ok
61350	08/04/2021 16:35:43	1	62	46194	1283633	1	459	1282787	1286816	1	460	1285487	2	275	inorganic	correct	1287116	1	460	1285487	1291697	1	462	1290887	4	259	1291981	1	462	1290887	1296412	1	464	1296287	2	503	inorganic	correct	1296946	1	464	1296287	1300294	1	465	1298987	4	455	1300778	1	465	1298987	mak_03979.png	mak_Rucksack.png	mak_Socken.png	ok
61350	08/04/2021 16:36:04	1	63	46194	1304743	1	467	1304387	1306892	1	467	1304387	3	599	organic	correct	1307542	1	468	1307087	1312174	1	469	1309787	4	198	1312407	1	469	1309787	1316022	1	471	1315187	3	1923	organic	correct	1317972	1	472	1317887	1321554	1	473	1320587	4	272	1321854	1	473	1320587	foq_17341.png	foq_Fenchel.png	foq_Pinguin.png	ok
61350	08/04/2021 16:36:25	1	64	46194	1325736	1	474	1323287	1329285	1	476	1328687	2	476	organic	incorrect	1329784	1	476	1328687	1333217	1	477	1331387	3	392	1333633	1	477	1331387	1337832	1	479	1336787	2	1036	organic	correct	1338898	1	479	1336787	1342630	1	481	1342186	4	224	1342880	1	481	1342186	fok_09860.png	fok_Palme.png	fok_Kaenguruh.png	ok
61350	08/04/2021 16:36:47	1	65	46194	1346862	1	482	1344887	1350028	1	483	1347587	3	806	organic	correct	1350861	1	484	1350286	1355193	1	485	1352987	4	257	1355492	1	485	1352987	1360474	1	487	1358386	3	639	organic	correct	1361141	1	488	1361087	1364756	1	489	1363787	4	219	1365006	1	489	1363787	fou_18966.png	fou_Feige.png	fou_Schmetterling.png	ok
61350	08/04/2021 16:37:07	1	66	46194	1369055	1	490	1366486	1372337	1	492	1371886	2	278	inorganic	correct	1372637	1	492	1371886	1376252	1	493	1374587	3	241	1376519	1	493	1374587	1380201	1	495	1379986	3	1341	inorganic	correct	1381567	1	495	1379986	1385049	1	496	1382686	4	357	1385432	1	497	1385387	fax_15310.png	fax_Klebeband.png	fax_Fahrrad.png	ok
61350	08/04/2021 16:37:25	1	67	46194	1389181	1	498	1388086	1390847	1	499	1390787	2	495	inorganic	correct	1391380	1	499	1390787	1394563	1	500	1393487	4	214	1394813	1	500	1393487	1398295	1	501	1396186	2	2012	inorganic	incorrect	1400327	1	502	1398887	1402410	1	503	1401587	3	1379	1403826	1	503	1401587	fac_02970.png	fac_Ohrring.png	fac_Haarbuerste.png	ok
61350	08/04/2021 16:37:45	1	68	46194	1406442	1	504	1404286	1408575	1	505	1406987	2	232	inorganic	correct	1408858	1	505	1406987	1413706	1	507	1412386	4	231	1413973	1	507	1412386	1417522	1	508	1415087	3	1210	inorganic	correct	1418755	1	509	1417786	1422553	1	510	1420486	4	209	1422786	1	510	1420486	faj_07849.png	faj_Parfuem.png	faj_Schuh.png	ok
61350	08/04/2021 16:38:06	1	69	46194	1427085	1	512	1425886	1430601	1	513	1428586	2	372	inorganic	correct	1431000	1	513	1428586	1434466	1	515	1433986	3	467	1434966	1	515	1433986	1438165	1	516	1436686	3	1861	inorganic	correct	1440047	1	517	1439387	1442447	1	518	1442086	4	483	1442963	1	518	1442086	fai_07637.png	fai_Foehn.png	fai_Kommode.png	ok
61350	08/04/2021 16:38:24	1	70	46194	1447578	1	520	1447487	1449711	1	520	1447487	2	1917	inorganic	correct	1451660	1	521	1450186	1453110	1	522	1452886	2	325	1453459	1	522	1452886	1458058	1	523	1455587	3	1084	inorganic	incorrect	1459174	1	524	1458286	1462190	1	525	1460986	2	1328	1463539	1	525	1460986	fan_18894.png	fan_Lampe.png	fan_Klavier.png	ok
61350	08/04/2021 16:38:43	1	71	46194	1465939	1	526	1463686	1468771	1	527	1466386	3	213	organic	correct	1469021	1	527	1466386	1472170	1	529	1471786	4	306	1472503	1	529	1471786	1476069	1	530	1474486	2	353	organic	correct	1476452	1	530	1474486	1480017	1	532	1479886	4	223	1480267	1	532	1479886	mog_03277.png	mog_Fledermaus.png	mog_Pilz.png	ok
61350	08/04/2021 16:39:02	1	72	46194	1485099	1	533	1482586	1487481	1	534	1485286	2	219	inorganic	correct	1487731	1	534	1485286	1492530	1	536	1490686	4	207	1492763	1	536	1490686	1496212	1	538	1496086	2	418	inorganic	correct	1496662	1	538	1496086	1499811	1	539	1498786	4	263	1500110	1	539	1498786	fap_17119.png	fap_Knopf.png	fap_Kissen.png	ok
61350	08/04/2021 16:39:23	1	73	46194	1503643	1	540	1501485	1505925	1	541	1504186	3	437	inorganic	incorrect	1506408	1	541	1504186	1510474	1	543	1509585	3	239	1510740	1	543	1509585	1515405	1	545	1514986	2	1008	inorganic	correct	1516438	1	545	1514986	1520037	1	546	1517685	4	224	1520287	1	546	1517685	mae_36426.png	mae_Taschenrechner.png	mae_Schach.png	ok
61350	08/04/2021 16:39:43	1	74	46194	1525235	1	547	1523086	1526818	1	548	1525785	3	663	organic	correct	1527518	1	548	1525785	1531317	1	550	1531186	2	1099	1532450	1	550	1531186	1535349	1	551	1533885	2	1898	organic	correct	1537281	1	552	1536586	1540930	1	553	1539286	3	199	1541163	1	553	1539286	mof_06901.png	mof_Spaghetti.png	mof_Hahn.png	ok
61350	08/04/2021 16:40:04	1	75	46194	1544429	1	554	1541985	1546661	1	555	1544686	3	237	organic	correct	1546928	1	555	1544686	1551343	1	557	1550085	4	277	1551643	1	557	1550085	1556175	1	559	1555485	2	667	organic	correct	1556891	1	559	1555485	1561673	1	561	1560886	4	164	1561873	1	561	1560886	moh_07125.png	moh_Muecke.png	moh_Birne.png	ok
61350	08/04/2021 16:40:25	1	76	46194	1565905	1	562	1563585	1568854	1	563	1566285	2	240	inorganic	correct	1569120	1	564	1568986	1574085	1	565	1571685	4	314	1574435	1	566	1574385	1578701	1	567	1577086	2	392	inorganic	correct	1579117	1	567	1577086	1583049	1	569	1582485	4	204	1583282	1	569	1582485	mas_41937.png	mas_Tisch.png	mas_Bueroklammer.png	ok
61350	08/04/2021 16:40:46	1	77	46194	1587248	1	570	1585186	1589730	1	571	1587885	3	315	organic	correct	1590080	1	571	1587885	1594995	1	573	1593285	3	338	1595362	1	573	1593285	1598677	1	574	1595985	3	1462	organic	correct	1600160	1	575	1598685	1603159	1	576	1601385	3	293	1603492	1	576	1601385	mot_69770.png	mot_Bison.png	mot_Hotdog.png	ok
61350	08/04/2021 16:41:06	1	78	46194	1607724	1	578	1606785	1609424	1	578	1606785	3	1314	organic	correct	1610773	1	579	1609485	1613506	1	580	1612185	3	216	1613755	1	580	1612185	1618471	1	582	1617585	3	1358	organic	correct	1619853	1	582	1617585	1624035	1	584	1622985	4	214	1624285	1	584	1622985	fov_15193.png	fov_Zucchini.png	fov_Fisch.png	ok
61350	08/04/2021 16:41:25	1	79	46194	1627601	1	585	1625685	1630217	1	586	1628385	3	355	organic	correct	1630600	1	586	1628385	1634848	1	588	1633785	3	282	1635165	1	588	1633785	1638680	1	589	1636485	3	2500	organic	incorrect	1641213	1	590	1639184	1642579	1	591	1641885	3	241	1642846	1	591	1641885	moj_11860.png	moj_Walnuss.png	moj_Blatt.png	ok
61350	08/04/2021 16:41:45	1	80	46194	1647277	1	592	1644585	1649127	1	593	1647284	2	335	inorganic	correct	1649493	1	593	1647284	1652509	1	594	1649985	4	263	1652826	1	595	1652685	1657774	1	596	1655384	3	564	inorganic	correct	1658374	1	597	1658085	1663339	1	598	1660785	4	392	1663755	1	599	1663484	mat_23754.png	mat_Feuerzeug.png	mat_Helm.png	ok
61350	08/04/2021 16:42:06	1	81	46194	1666738	1	600	1666185	1669737	1	601	1668885	2	565	organic	incorrect	1670336	1	601	1668885	1674468	1	603	1674285	2	285	1674785	1	603	1674285	1679450	1	604	1676985	2	1120	organic	correct	1680600	1	605	1679684	1683449	1	606	1682385	4	243	1683715	1	606	1682385	foe_08514.png	foe_Tannenzapfen.png	foe_Adler.png	ok
61350	08/04/2021 16:42:27	1	82	46194	1688330	1	608	1687784	1691563	1	609	1690485	3	652	organic	correct	1692246	1	609	1690485	1695561	1	610	1693184	2	276	1695861	1	610	1693184	1699610	1	612	1698585	2	1029	organic	correct	1700676	1	612	1698585	1703725	1	613	1701284	3	263	1704042	1	614	1703984	moe_23630.png	moe_Waschbaer.png	moe_Pommes.png	ok
61350	08/04/2021 16:42:47	1	83	46194	1708523	1	615	1706685	1710623	1	616	1709384	3	1791	inorganic	incorrect	1712439	1	617	1712084	1715571	1	618	1714785	2	595	1716204	1	618	1714785	1719087	1	619	1717484	2	812	inorganic	correct	1719920	1	619	1717484	1723235	1	621	1722884	4	182	1723452	1	621	1722884	maj_01546.png	maj_Krawatte.png	maj_Computermaus.png	ok
61350	08/04/2021 16:43:07	1	84	46194	1728467	1	623	1728284	1730116	1	623	1728284	2	385	inorganic	correct	1730533	1	623	1728284	1734998	1	625	1733685	4	1264	1736297	1	625	1733685	1739996	1	627	1739084	3	557	inorganic	correct	1740579	1	627	1739084	1744345	1	628	1741784	4	342	1744711	1	629	1744485	maw_22459.png	maw_Schlauchboot.png	maw_Pingpongschlaeger.png	ok
61350	08/04/2021 16:43:25	1	85	46194	1749143	1	630	1747184	1750909	1	631	1749884	3	808	inorganic	incorrect	1751759	1	631	1749884	1755874	1	633	1755284	3	249	1756157	1	633	1755284	1759456	1	634	1757984	3	2045	inorganic	correct	1761522	1	635	1760685	1763722	1	636	1763384	4	321	1764071	1	636	1763384	fag_06551.png	fag_Geschenk.png	fag_Portemonnaie.png	ok
61350	08/04/2021 16:43:43	1	86	46194	1767304	1	637	1766084	1768870	1	638	1768784	2	284	inorganic	correct	1769186	1	638	1768784	1772452	1	639	1771484	4	312	1772802	1	639	1771484	1777017	1	641	1776884	3	753	inorganic	correct	1777800	1	641	1776884	1781099	1	642	1779585	4	297	1781432	1	642	1779585	mai_23761.png	mai_Auto.png	mai_Gewehr.png	ok
61350	08/04/2021 16:44:02	1	87	46194	1784681	1	643	1782284	1787713	1	645	1787684	2	322	organic	incorrect	1788063	1	645	1787684	1791046	1	646	1790384	2	1123	1792195	1	646	1790384	1794978	1	647	1793084	3	640	organic	correct	1795644	1	647	1793084	1799759	1	649	1798484	4	235	1800043	1	649	1798484	foi_05187.png	foi_Apfelkuchen.png	foi_Pflanze.png	ok
61350	08/04/2021 16:44:21	1	88	46194	1803375	1	650	1801184	1805974	1	651	1803884	3	449	organic	correct	1806457	1	651	1803884	1809806	1	653	1809284	3	218	1810056	1	653	1809284	1814088	1	654	1811984	2	1733	organic	correct	1815854	1	655	1814684	1818153	1	656	1817384	4	354	1818536	1	656	1817384	foj_08937.png	foj_Rose.png	foj_Waffel.png	ok
61350	08/04/2021 16:44:42	1	89	46194	1822852	1	658	1822784	1824618	1	658	1822784	3	804	organic	correct	1825451	1	658	1822784	1829333	1	660	1828185	3	2169	1831532	1	661	1830884	1833615	1	661	1830884	3	1374	organic	correct	1835014	1	662	1833585	1838613	1	663	1836285	4	279	1838930	1	663	1836285	fop_07937.png	fop_Koala.png	fop_Mango.png	ok
61350	08/04/2021 16:45:02	1	90	46194	1843528	1	665	1841685	1846010	1	666	1844385	3	229	organic	correct	1846260	1	666	1844385	1849626	1	667	1847084	2	301	1849976	1	668	1849785	1854424	1	669	1852485	3	1005	organic	correct	1855457	1	670	1855184	1859173	1	671	1857885	2	205	1859406	1	671	1857885	foa_00426.png	foa_Marienkaefer.png	foa_Aubergine.png	ok
61350	08/04/2021 16:45:20	1	91	46194	1863471	1	673	1863284	1865670	1	673	1863284	3	713	organic	correct	1866420	1	674	1865985	1869769	1	675	1868684	4	404	1870202	1	675	1868684	1873185	1	676	1871384	2	1549	organic	correct	1874767	1	677	1874085	1877167	1	678	1876784	4	280	1877483	1	678	1876784	mol_11363.png	mol_Schimpanse.png	mol_Pizza.png	ok
61350	08/04/2021 16:45:40	1	92	46194	1881815	1	679	1879484	1884731	1	680	1882185	3	426	inorganic	incorrect	1885181	1	681	1884884	1889529	1	682	1887584	3	252	1889812	1	682	1887584	1893045	1	684	1892984	3	1412	inorganic	correct	1894477	1	684	1892984	1898210	1	685	1895684	4	224	1898476	1	686	1898384	far_06518.png	far_Heissluftballon.png	far_Giesskanne.png	ok
61350	08/04/2021 16:46:02	1	93	46194	1901625	1	687	1901084	1904991	1	688	1903784	2	292	inorganic	correct	1905307	1	688	1903784	1909556	1	690	1909184	3	264	1909856	1	690	1909184	1913321	1	691	1911884	3	1174	inorganic	correct	1914521	1	691	1911884	1918736	1	693	1917284	3	195	1918969	1	693	1917284	fal_07977.png	fal_Buegeleisen.png	fal_Korb.png	ok
61350	08/04/2021 16:46:20	1	94	46194	1923384	1	695	1922684	1925017	1	695	1922684	2	357	organic	incorrect	1925400	1	695	1922684	1928816	1	697	1928084	3	229	1929082	1	697	1928084	1933214	1	698	1930784	3	1648	organic	incorrect	1934897	1	699	1933484	1938029	1	700	1936184	2	184	1938246	1	700	1936184	mos_23223.png	mos_Traube.png	mos_Eintagsfliege.png	ok
61350	08/04/2021 16:46:41	1	95	46194	1942311	1	702	1941584	1944910	1	703	1944284	2	1497	organic	incorrect	1946443	1	703	1944284	1950175	1	705	1949684	3	285	1950509	1	705	1949684	1955224	1	707	1955084	3	1421	organic	correct	1956673	1	707	1955084	1959189	1	708	1957784	3	1542	1960755	1	709	1960483	foc_02664.png	foc_Brombeere.png	foc_Eule.png	ok
61350	08/04/2021 16:47:01	1	96	46194	1963154	1	709	1960483	1965570	1	710	1963184	3	690	organic	correct	1966287	1	711	1965884	1969769	1	712	1968583	4	1179	1970985	1	712	1968583	1974334	1	714	1973984	2	411	organic	correct	1974767	1	714	1973984	1979415	1	716	1979384	4	324	1979765	1	716	1979384	fot_06092.png	fot_Taube.png	fot_Salat.png	ok
