ID	DateTime	Run	Delayed_Retrieval_Trial	First_Pulse_Time	FaceRecog_OnsetTime	FaceRecog_OnsetTimeUncertainty	FaceRecog_fMRI_Pulse	FaceRecog_fMRI_PulseTime	Assoc_Retrieval_OnsetTime	Assoc_Retrieval_OnsetTimeUncertainty	Assoc_Retrieval_fMRI_Pulse	Assoc_Retrieval_fMRI_PulseTime	Assoc_Retrieval_Pressed_Button	Assoc_Retrieval_RT	Assoc_Retrieval_Response_Category	Assoc_Retrieval_Accuracy	Assoc_Retrieval_Feedback_OnsetTime	Assoc_Retrieval_Feedback_OnsetTimeUncertainty	Assoc_Retrieval_Feedback_fMRI_Pulse	Assoc_Retrieval_Feedback_fMRI_PulseTime	Retrieval_consc_Rating_OnsetTime	Retrieval_consc_Rating_OnsetTimeUncertainty	Retrieval_consc_Rating_fMRI_Pulse	Retrieval_consc_Rating_fMRI_PulseTime	Retrieval_consc_Rating_Pressed_Button	Retrieval_consc_Rating_RT	Retrieval_consc_Rating_Feedback_OnsetTime	Retrieval_consc_Rating_Feedback_OnsetTimeUncertainty	Retrieval_consc_Rating_Feedback_fMRI_Pulse	Retrieval_consc_Rating_Feedback_fMRI_PulseTime	ForcedChoice_OnsetTime	ForcedChoice_OnsetTimeUncertainty	ForcedChoice_fMRI_Pulse	ForcedChoice_fMRI_PulseTime	ForcedChoice_Pressed_Button	ForcedChoice_RT	ForcedChoice_Response_Category	ForcedChoice_Accuracy	ForcedChoice_Feedback_OnsetTime	ForcedChoice_Feedback_OnsetTimeUncertainty	ForcedChoice_Feedback_fMRI_Pulse	ForcedChoice_Feedback_fMRI_PulseTime	Recognition_consc_Rating_OnsetTime	Recognition_consc_Rating_OnsetTimeUncertainty	Recognition_consc_Rating_fMRI_Pulse	Recognition_consc_Rating_fMRI_PulseTime	Recognition_consc_Rating_Pressed_Button	Recognition_consc_Rating_RT	Recognition_consc_Rating_Feedback_OnsetTime	Recognition_consc_Rating_Feedback_OnsetTimeUncertainty	Recognition_consc_Rating_Feedback_fMRI_Pulse	Recognition_consc_Rating_Feedback_fMRI_PulseTime	Presented_Person	Presented_Target	Presented_Lure	TrialStatus
62015	09/01/2021 15:12:53	1	1	39511	52798	1	5	50310	55564	1	6	53011	0	0	organic	miss	55564	1	7	55710	59813	1	8	58410	2	1424	61262	1	9	61111	63645	1	9	61111	2	2331	organic	correct	66010	1	10	63810	68859	1	11	66510	3	1456	70342	1	12	69211	mon_65798.png	mon_Kartoffel.png	mon_Fuchs.png	ok
62015	09/01/2021 15:13:13	1	2	39511	73375	1	13	71910	76240	1	14	74610	2	464	inorganic	correct	76740	1	14	74610	79989	1	15	77311	4	536	80556	1	16	80010	84371	1	17	82710	2	672	inorganic	correct	85071	1	17	82710	88569	1	19	88110	4	300	88903	1	19	88110	fat_12032.png	fat_Einkaufswagen.png	fat_Kleiderbuegel.png	ok
62015	09/01/2021 15:13:36	1	3	39511	93335	1	20	90810	95750	1	21	93510	3	415	organic	correct	96200	1	21	93510	100365	1	23	98911	3	1286	101682	1	24	101610	105714	1	25	104310	3	1483	organic	incorrect	107230	1	26	107010	111129	1	27	109710	3	1772	112928	1	28	112410	foc_02157.png	foc_Eule.png	foc_Brombeere.png	ok
62015	09/01/2021 15:13:57	1	4	39511	116193	1	29	115110	119142	1	30	117810	3	470	inorganic	incorrect	119642	1	30	117810	122908	1	31	120510	3	299	123241	1	31	120510	127456	1	33	125910	2	2352	inorganic	correct	129839	1	34	128610	132721	1	35	131310	3	1364	134121	1	36	134010	fan_17286.png	fan_Lampe.png	fan_Klavier.png	ok
62015	09/01/2021 15:14:18	1	5	39511	137403	1	37	136710	139702	1	38	139409	2	289	organic	incorrect	140035	1	38	139409	144700	1	39	142110	3	591	145317	1	40	144810	148949	1	41	147509	0	0	organic	miss	148949	1	42	150210	154147	1	43	152910	2	1502	155680	1	44	155609	moe_02012.png	moe_Pommes.png	moe_Waschbaer.png	ok
62015	09/01/2021 15:14:37	1	6	39511	157696	1	44	155609	160245	1	45	158310	3	1044	organic	correct	161312	1	46	161010	163627	1	46	161010	3	679	164344	1	47	163709	168009	1	48	166410	2	1459	organic	correct	169492	1	49	169110	171941	1	50	171809	2	2281	174257	1	50	171809	foe_08236.png	foe_Tannenzapfen.png	foe_Adler.png	ok
62015	09/01/2021 15:14:59	1	7	39511	177090	1	51	174510	180505	1	53	179909	2	1141	inorganic	correct	181671	1	53	179909	185553	1	55	185309	2	204	185787	1	55	185309	190085	1	56	188009	2	1799	inorganic	incorrect	191934	1	57	190710	195067	1	58	193409	3	302	195400	1	58	193409	faj_07783.png	faj_Parfuem.png	faj_Schuh.png	ok
62015	09/01/2021 15:15:16	1	8	39511	199049	1	60	198810	200981	1	60	198810	3	1973	inorganic	incorrect	202981	1	61	201509	204414	1	62	204209	2	1379	205830	1	62	204209	208112	1	63	206910	3	2238	inorganic	correct	210378	1	64	209609	211978	1	64	209609	3	319	212328	1	64	209609	faw_14215.png	faw_Hufeisen.png	faw_Kuechenmaschine.png	ok
62015	09/01/2021 15:15:37	1	9	39511	215826	1	66	215010	218575	1	67	217709	3	2577	inorganic	incorrect	221175	1	68	220409	222907	1	68	220409	2	276	223207	1	69	223109	226856	1	70	225809	2	2356	inorganic	correct	229239	1	71	228509	231688	1	72	231209	4	1962	233687	1	72	231209	fag_06539.png	fag_Portemonnaie.png	fag_Geschenk.png	ok
62015	09/01/2021 15:15:56	1	10	39511	236703	1	74	236609	238519	1	74	236609	2	2361	organic	incorrect	240918	1	75	239309	242534	1	76	242009	3	1722	244283	1	76	242009	246866	1	77	244709	3	2363	organic	correct	249265	1	78	247409	252464	1	79	250109	4	481	252980	1	80	252809	mol_07679.png	mol_Schimpanse.png	mol_Pizza.png	ok
62015	09/01/2021 15:16:20	1	11	39511	256663	1	81	255509	259845	1	82	258209	2	816	organic	incorrect	260695	1	82	258209	264693	1	84	263609	3	248	264976	1	84	263609	269975	1	86	269008	2	1367	organic	incorrect	271374	1	86	269008	274457	1	88	274409	2	295	274790	1	88	274409	mog_03090.png	mog_Pilz.png	mog_Fledermaus.png	ok
62015	09/01/2021 15:16:40	1	12	39511	279721	1	89	277108	282970	1	91	282509	2	1319	organic	incorrect	284320	1	91	282509	287386	1	92	285208	3	1365	288802	1	93	287909	292350	1	94	290609	0	0	organic	miss	292350	1	95	293308	296283	1	96	296009	2	685	296999	1	96	296009	foq_16799.png	foq_Pinguin.png	foq_Fenchel.png	ok
62015	09/01/2021 15:17:01	1	13	39511	300648	1	97	298709	303213	1	98	301408	2	529	organic	incorrect	303780	1	98	301408	307595	1	100	306809	2	510	308128	1	100	306809	311577	1	101	309508	2	1733	organic	incorrect	313343	1	102	312209	316409	1	103	314908	3	228	316659	1	103	314908	mos_20953.png	mos_Eintagsfliege.png	mos_Traube.png	ok
62015	09/01/2021 15:17:22	1	14	39511	321607	1	105	320309	323757	1	106	323008	2	306	inorganic	correct	324090	1	106	323008	328422	1	107	325708	4	272	328722	1	108	328409	332004	1	109	331108	2	887	inorganic	correct	332920	1	109	331108	337552	1	111	336509	4	275	337868	1	111	336509	maj_01545.png	maj_Computermaus.png	maj_Krawatte.png	ok
62015	09/01/2021 15:17:43	1	15	39511	342617	1	113	341908	344783	1	114	344609	2	2252	organic	incorrect	347065	1	114	344609	348965	1	115	347308	3	236	349231	1	115	347308	353963	1	117	352708	3	1980	organic	correct	355979	1	118	355408	359161	1	119	358108	4	707	359894	1	119	358108	for_15187.png	for_Mandel.png	for_Seehund.png	ok
62015	09/01/2021 15:18:03	1	16	39511	363093	1	120	360808	364676	1	121	363508	2	922	organic	incorrect	365626	1	121	363508	369441	1	123	368908	4	291	369758	1	123	368908	372973	1	124	371608	0	0	organic	miss	372973	1	125	374308	378138	1	126	377008	2	324	378488	1	126	377008	moj_11821.png	moj_Blatt.png	moj_Walnuss.png	ok
62015	09/01/2021 15:18:26	1	17	39511	382803	1	128	382408	385319	1	129	385108	2	1366	organic	incorrect	386735	1	129	385108	390384	1	130	387808	3	229	390651	1	131	390508	395116	1	132	393208	3	2591	organic	correct	397731	1	133	395908	400614	1	134	398608	4	272	400914	1	134	398608	mom_59361.png	mom_Ei.png	mom_Loewe.png	ok
62015	09/01/2021 15:18:45	1	18	39511	405862	1	136	404008	408028	1	137	406708	3	1238	inorganic	incorrect	409294	1	137	406708	412127	1	138	409408	2	245	412410	1	139	412108	416792	1	140	414808	3	2011	inorganic	correct	418824	1	141	417508	421607	1	142	420208	3	2160	423789	1	143	422908	mau_49693.png	mau_Wasserventil.png	mau_Leiter.png	ok
62015	09/01/2021 15:19:07	1	19	39511	425522	1	143	422908	428504	1	145	428308	3	348	organic	correct	428888	1	145	428308	433103	1	146	431008	3	304	433436	1	146	431008	437851	1	148	436408	3	2054	organic	incorrect	439934	1	149	439107	442733	1	150	441808	3	1112	443883	1	150	441808	fot_00797.png	fot_Salat.png	fot_Taube.png	ok
62015	09/01/2021 15:19:30	1	20	39511	447548	1	152	447207	450580	1	153	449908	2	821	inorganic	correct	451430	1	153	449908	455429	1	155	455308	3	194	455645	1	155	455308	460594	1	156	458008	3	2251	inorganic	correct	462876	1	157	460707	465075	1	158	463408	3	1153	466258	1	159	466108	map_41499.png	map_Pfeife.png	map_Globus.png	ok
62015	09/01/2021 15:19:50	1	21	39511	469940	1	160	468807	471906	1	161	471508	3	1243	inorganic	incorrect	473173	1	161	471508	476638	1	162	474208	3	836	477504	1	163	476907	480637	1	164	479608	2	1366	inorganic	incorrect	482036	1	164	479608	484835	1	165	482308	4	2031	486918	1	166	485007	mak_00987.png	mak_Rucksack.png	mak_Socken.png	ok
62015	09/01/2021 15:20:10	1	22	39511	490050	1	167	487708	491650	1	168	490407	2	789	inorganic	correct	492466	1	168	490407	496831	1	170	495808	4	228	497098	1	170	495808	500997	1	171	498507	3	1207	inorganic	correct	502229	1	172	501207	506028	1	173	503908	4	662	506728	1	174	506607	fai_07494.png	fai_Kommode.png	fai_Foehn.png	ok
62015	09/01/2021 15:20:30	1	23	39511	509760	1	175	509307	513276	1	176	512008	3	550	organic	correct	513859	1	176	512008	517424	1	177	514707	3	1258	518707	1	178	517407	521323	1	179	520108	3	1747	organic	incorrect	523106	1	180	522807	525488	1	180	522807	3	291	525805	1	181	525507	foa_00207.png	foa_Marienkaefer.png	foa_Aubergine.png	ok
62015	09/01/2021 15:20:50	1	24	39511	529920	1	182	528208	532619	1	183	530907	2	305	inorganic	correct	532952	1	183	530907	536634	1	185	536307	3	438	537118	1	185	536307	541250	1	186	539007	3	2241	inorganic	incorrect	543515	1	187	541707	545948	1	188	544407	3	960	546931	1	188	544407	mao_11634.png	mao_Kegel.png	mao_Stempel.png	ok
62015	09/01/2021 15:21:11	1	25	39511	549863	1	190	549807	552762	1	191	552507	3	1657	inorganic	incorrect	554445	1	191	552507	557427	1	192	555207	2	342	557794	1	192	555207	561459	1	194	560607	2	1570	inorganic	incorrect	563059	1	194	560607	566174	1	196	566007	2	715	566924	1	196	566007	fap_16329.png	fap_Kissen.png	fap_Knopf.png	ok
62015	09/01/2021 15:21:31	1	26	39511	571339	1	197	568707	574205	1	199	574107	2	1338	organic	incorrect	575571	1	199	574107	577604	1	200	576807	2	430	578070	1	200	576807	581569	1	201	579507	3	2074	organic	incorrect	583685	1	202	582206	586651	1	203	584907	4	192	586884	1	203	584907	foi_03389.png	foi_Apfelkuchen.png	foi_Pflanze.png	ok
62015	09/01/2021 15:21:52	1	27	39511	590716	1	205	590306	593232	1	206	593007	2	1559	inorganic	correct	594815	1	206	593007	596864	1	207	595707	3	1517	598414	1	207	595707	601946	1	209	601107	3	1665	inorganic	incorrect	603645	1	209	601107	607211	1	211	606506	3	1795	609043	1	211	606506	maw_04767.png	maw_Schlauchboot.png	maw_Pingpongschlaeger.png	ok
62015	09/01/2021 15:22:12	1	28	39511	612509	1	213	611907	615291	1	214	614606	3	2113	inorganic	incorrect	617440	1	215	617307	620040	1	215	617307	2	326	620389	1	216	620007	623705	1	217	622706	3	1970	inorganic	correct	625704	1	218	625407	628970	1	219	628106	4	608	629603	1	219	628106	mae_01010.png	mae_Taschenrechner.png	mae_Schach.png	ok
62015	09/01/2021 15:22:33	1	29	39511	632369	1	220	630806	634851	1	221	633507	2	1095	organic	incorrect	636001	1	221	633507	640199	1	223	638906	2	291	640516	1	223	638906	644548	1	225	644306	3	1742	organic	incorrect	646314	1	225	644306	648197	1	226	647006	3	2297	650529	1	227	649707	mot_69374.png	mot_Bison.png	mot_Hotdog.png	ok
62015	09/01/2021 15:22:52	1	30	39511	652828	1	228	652406	654628	1	228	652406	2	1662	organic	incorrect	656311	1	229	655106	659226	1	230	657807	3	1167	660426	1	230	657807	663975	1	232	663206	2	2902	organic	incorrect	666907	1	233	665906	668057	1	233	665906	3	943	669023	1	234	668606	foj_08220.png	foj_Waffel.png	foj_Rose.png	ok
62015	09/01/2021 15:23:12	1	31	39511	671739	1	235	671306	673755	1	235	671306	2	2484	organic	incorrect	676271	1	236	674006	678736	1	237	676706	2	1342	680103	1	238	679406	683918	1	239	682106	3	1441	organic	correct	685401	1	240	684806	688416	1	241	687506	2	241	688683	1	241	687506	mof_02408.png	mof_Spaghetti.png	mof_Hahn.png	ok
62015	09/01/2021 15:23:34	1	32	39511	692065	1	242	690206	695381	1	243	692906	3	1716	organic	correct	697130	1	244	695606	700429	1	245	698306	2	281	700746	1	245	698306	705277	1	247	703706	3	1256	organic	correct	706560	1	248	706406	709243	1	249	709106	2	1526	710792	1	249	709106	fok_09378.png	fok_Kaenguruh.png	fok_Palme.png	ok
62015	09/01/2021 15:23:57	1	33	39511	714008	1	250	711805	717440	1	252	717206	2	852	inorganic	correct	718323	1	252	717206	722655	1	254	722606	4	274	722955	1	254	722606	727786	1	255	725306	2	789	inorganic	correct	728603	1	256	728005	732452	1	257	730706	4	1006	733501	1	258	733406	mac_59169.png	mac_Dartpfeil.png	mac_Medaille.png	ok
62015	09/01/2021 15:24:16	1	34	39511	737583	1	259	736105	739449	1	260	738806	3	897	organic	correct	740382	1	260	738806	743431	1	261	741506	3	1458	744914	1	262	744205	747430	1	263	746906	3	2098	organic	correct	749562	1	263	746906	752428	1	265	752305	4	1575	754028	1	265	752305	moh_06446.png	moh_Birne.png	moh_Muecke.png	ok
62015	09/01/2021 15:24:36	1	35	39511	756293	1	266	755006	758409	1	267	757705	3	437	inorganic	incorrect	758876	1	267	757705	762508	1	268	760405	4	2090	764624	1	269	763106	766723	1	270	765805	2	2460	inorganic	incorrect	769206	1	271	768505	772188	1	272	771206	2	227	772438	1	272	771206	far_00736.png	far_Heissluftballon.png	far_Giesskanne.png	ok
62015	09/01/2021 15:24:57	1	36	39511	776170	1	273	773905	778519	1	274	776605	3	975	inorganic	incorrect	779519	1	275	779306	783018	1	276	782005	2	400	783468	1	276	782005	788166	1	278	787406	0	0	inorganic	miss	788166	1	279	790105	793231	1	280	792805	2	492	793747	1	280	792805	mai_06530.png	mai_Auto.png	mai_Gewehr.png	ok
62015	09/01/2021 15:25:16	1	37	39511	796746	1	281	795506	799679	1	282	798205	3	2232	inorganic	incorrect	801945	1	283	800905	804544	1	284	803605	2	227	804794	1	284	803605	808659	1	285	806305	3	2050	inorganic	incorrect	810742	1	286	809006	812624	1	287	811705	2	1048	813707	1	287	811705	fab_06018.png	fab_Kinderwagen.png	fab_Staubsauger.png	ok
62015	09/01/2021 15:25:39	1	38	39511	816373	1	288	814405	819789	1	289	817105	2	781	organic	incorrect	820605	1	290	819805	825004	1	291	822505	2	1825	826853	1	292	825205	829485	1	293	827905	2	2372	organic	correct	831901	1	294	830605	834417	1	295	833305	2	1280	835733	1	295	833305	fop_00621.png	fop_Koala.png	fop_Mango.png	ok
62015	09/01/2021 15:26:00	1	39	39511	839099	1	297	838705	842064	1	298	841405	3	1717	inorganic	incorrect	843814	1	298	841405	845413	1	299	844105	2	316	845763	1	299	844105	850528	1	301	849505	2	1782	inorganic	incorrect	852344	1	302	852205	854893	1	302	852205	2	392	855310	1	303	854905	fal_07906.png	fal_Korb.png	fal_Buegeleisen.png	ok
62015	09/01/2021 15:26:22	1	40	39511	859825	1	304	857605	863207	1	306	863005	3	218	organic	correct	863457	1	306	863005	868372	1	307	865705	4	302	868705	1	308	868405	872671	1	309	871105	3	533	organic	correct	873237	1	309	871105	877402	1	311	876505	4	399	877836	1	311	876505	mou_01862.png	mou_Kraehe.png	mou_Croissant.png	ok
62015	09/01/2021 15:26:43	1	41	39511	882134	1	313	881905	884383	1	313	881905	3	1260	organic	correct	885666	1	314	884605	888615	1	315	887305	3	778	889415	1	315	887305	893164	1	317	892705	2	1312	organic	incorrect	894497	1	317	892705	898229	1	319	898105	2	183	898445	1	319	898105	fov_15046.png	fov_Fisch.png	fov_Zucchini.png	ok
62015	09/01/2021 15:27:01	1	42	39511	903210	1	320	900805	905526	1	321	903504	3	2128	inorganic	incorrect	907676	1	322	906205	909342	1	323	908905	3	429	909808	1	323	908905	912707	1	324	911604	3	2193	inorganic	incorrect	914923	1	325	914305	917189	1	326	917005	2	2081	919305	1	326	917005	fax_14883.png	fax_Fahrrad.png	fax_Klebeband.png	ok
62015	09/01/2021 15:27:21	1	43	39511	921571	1	327	919704	924820	1	328	922405	2	1553	organic	incorrect	926403	1	329	925105	929335	1	330	927804	3	908	930285	1	330	927804	932884	1	331	930505	2	1829	organic	incorrect	934733	1	332	933205	938082	1	333	935904	2	288	938398	1	333	935904	mob_00760.png	mob_Kiwi.png	mob_Igel.png	ok
62015	09/01/2021 15:27:42	1	44	39511	941681	1	335	941304	944846	1	336	944004	2	447	inorganic	correct	945329	1	336	944004	949361	1	337	946705	4	260	949645	1	338	949404	954510	1	339	952104	3	1005	inorganic	correct	955543	1	340	954805	958258	1	341	957504	4	886	959175	1	341	957504	fac_02146.png	fac_Ohrring.png	fac_Haarbuerste.png	ok
62015	09/01/2021 15:28:05	1	45	39511	962307	1	342	960204	965773	1	344	965604	2	251	inorganic	correct	966056	1	344	965604	970254	1	345	968304	4	225	970504	1	345	968304	974719	1	347	973704	3	1695	inorganic	correct	976436	1	348	976404	980301	1	349	979105	4	297	980651	1	349	979105	mal_04470.png	mal_Kugelschreiber.png	mal_Drucker.png	ok
62015	09/01/2021 15:28:27	1	46	39511	985133	1	351	984504	988548	1	352	987204	2	1051	inorganic	correct	989631	1	352	987204	993696	1	354	992604	4	207	993930	1	354	992604	998112	1	356	998004	2	747	inorganic	correct	998895	1	356	998004	1002127	1	357	1000704	4	673	1002827	1	357	1000704	mat_23275.png	mat_Helm.png	mat_Feuerzeug.png	ok
62015	09/01/2021 15:28:47	1	47	39511	1007059	1	359	1006104	1008808	1	359	1006104	3	711	organic	correct	1009541	1	360	1008804	1013640	1	361	1011504	3	816	1014489	1	362	1014204	1018671	1	363	1016904	2	1413	organic	correct	1020104	1	364	1019604	1023720	1	365	1022304	4	867	1024619	1	365	1022304	fou_17118.png	fou_Schmetterling.png	fou_Feige.png	ok
62015	09/01/2021 15:29:08	1	48	39511	1027518	1	366	1025003	1029834	1	367	1027704	2	672	inorganic	correct	1030551	1	368	1030404	1034999	1	369	1033103	3	318	1035349	1	369	1033103	1038648	1	371	1038504	2	822	inorganic	correct	1039498	1	371	1038504	1043146	1	372	1041203	3	238	1043413	1	372	1041203	mas_41366.png	mas_Bueroklammer.png	mas_Tisch.png	ok
62015	09/01/2021 15:29:29	1	49	39511	1048445	1	374	1046604	1051677	1	375	1049303	3	476	organic	correct	1052177	1	376	1052004	1056059	1	377	1054704	2	345	1056425	1	377	1054704	1061274	1	379	1060104	3	1189	organic	correct	1062490	1	379	1060104	1066022	1	381	1065503	3	1446	1067505	1	381	1065503	mon_69587.png	mon_Fuchs.png	mon_Kartoffel.png	ok
62015	09/01/2021 15:29:50	1	50	39511	1069487	1	382	1068204	1072653	1	383	1070903	3	2060	inorganic	incorrect	1074736	1	384	1073603	1076718	1	385	1076304	2	1355	1078118	1	385	1076304	1080917	1	386	1079003	3	1238	inorganic	correct	1082183	1	387	1081703	1085232	1	388	1084404	4	513	1085782	1	388	1084404	fat_14140.png	fat_Kleiderbuegel.png	fat_Einkaufswagen.png	ok
62015	09/01/2021 15:30:09	1	51	39511	1090197	1	390	1089803	1091996	1	390	1089803	2	1622	organic	incorrect	1093646	1	391	1092504	1097195	1	392	1095203	3	252	1097478	1	392	1095203	1101043	1	394	1100604	2	1423	organic	incorrect	1102493	1	394	1100604	1105708	1	395	1103303	2	1217	1106958	1	396	1106003	foc_02664.png	foc_Brombeere.png	foc_Eule.png	ok
62015	09/01/2021 15:30:27	1	52	39511	1109257	1	397	1108704	1111973	1	398	1111403	2	354	inorganic	correct	1112356	1	398	1111403	1115872	1	399	1114103	4	302	1116205	1	399	1114103	1119404	1	400	1116803	2	666	inorganic	correct	1120104	1	401	1119503	1123819	1	402	1122203	4	289	1124136	1	402	1122203	fan_18894.png	fan_Klavier.png	fan_Lampe.png	ok
62015	09/01/2021 15:30:48	1	53	39511	1127684	1	404	1127603	1130300	1	404	1127603	3	217	organic	correct	1130550	1	405	1130303	1134449	1	406	1133003	4	255	1134731	6	406	1133003	1138064	1	407	1135703	3	968	organic	correct	1139064	1	408	1138403	1143396	1	409	1141103	4	266	1143696	1	409	1141103	moe_23630.png	moe_Waschbaer.png	moe_Pommes.png	ok
62015	09/01/2021 15:31:08	1	54	39511	1148561	1	411	1146503	1150293	1	412	1149203	2	326	inorganic	correct	1150643	1	412	1149203	1154859	1	414	1154602	3	1724	1156608	1	414	1154602	1159140	1	415	1157303	3	1789	inorganic	correct	1160956	1	416	1160003	1163939	1	417	1162702	3	1789	1165755	1	418	1165403	faw_14685.png	faw_Kuechenmaschine.png	faw_Hufeisen.png	ok
62015	09/01/2021 15:31:29	1	55	39511	1167737	1	418	1165403	1170270	1	419	1168103	2	869	organic	incorrect	1171170	1	420	1170802	1175385	1	421	1173503	3	326	1175751	1	421	1173503	1180433	1	423	1178902	2	947	organic	correct	1181416	1	423	1178902	1185315	1	425	1184303	4	696	1186048	1	425	1184303	foe_08514.png	foe_Adler.png	foe_Tannenzapfen.png	ok
62015	09/01/2021 15:31:49	1	56	39511	1188997	1	426	1187002	1191230	1	427	1189703	2	1498	inorganic	correct	1192762	1	428	1192403	1195212	1	429	1195102	2	291	1195528	1	429	1195102	1199677	1	430	1197803	3	1798	inorganic	correct	1201509	1	431	1200503	1204758	1	432	1203202	4	362	1205158	1	432	1203202	faj_07849.png	faj_Schuh.png	faj_Parfuem.png	ok
62015	09/01/2021 15:32:09	1	57	39511	1208690	1	434	1208602	1211972	1	435	1211302	3	576	organic	correct	1212572	1	435	1211302	1215371	1	436	1214003	3	537	1215938	1	436	1214003	1220286	1	438	1219402	2	1864	organic	correct	1222186	1	439	1222103	1225485	1	440	1224802	4	288	1225818	1	440	1224802	mol_11363.png	mol_Pizza.png	mol_Schimpanse.png	ok
62015	09/01/2021 15:32:29	1	58	39511	1228967	1	441	1227502	1232516	1	442	1230203	3	862	organic	correct	1233399	1	443	1232902	1236764	1	444	1235602	2	186	1236981	1	444	1235602	1241146	1	446	1241002	3	1573	organic	incorrect	1242745	1	446	1241002	1245078	1	447	1243702	2	1697	1246811	1	448	1246402	foq_17341.png	foq_Fenchel.png	foq_Pinguin.png	ok
62015	09/01/2021 15:32:49	1	59	39511	1249426	1	449	1249102	1251093	1	449	1249102	3	2612	inorganic	incorrect	1253742	1	450	1251802	1255508	1	451	1254502	2	568	1256108	1	451	1254502	1259057	1	452	1257202	2	2709	inorganic	correct	1261789	1	453	1259903	1264638	1	454	1262602	3	355	1265021	1	454	1262602	fag_06551.png	fag_Geschenk.png	fag_Portemonnaie.png	ok
62015	09/01/2021 15:33:11	1	60	39511	1269536	1	456	1268003	1272635	1	457	1270702	2	1351	organic	incorrect	1274035	1	458	1273402	1277300	1	459	1276103	3	247	1277584	1	459	1276103	1282399	1	461	1281502	2	2952	organic	correct	1285381	1	462	1284202	1287114	1	463	1286902	4	233	1287380	1	463	1286902	mog_03277.png	mog_Fledermaus.png	mog_Pilz.png	ok
62015	09/01/2021 15:33:32	1	61	39511	1291362	1	464	1289602	1293595	1	465	1292302	3	1995	organic	correct	1295628	1	466	1295002	1298543	1	467	1297702	2	385	1298960	1	467	1297702	1303425	1	469	1303102	3	1757	organic	incorrect	1305208	1	469	1303102	1308423	1	470	1305802	3	835	1309290	1	471	1308502	moj_11860.png	moj_Walnuss.png	moj_Blatt.png	ok
62015	09/01/2021 15:33:51	1	62	39511	1312172	1	472	1311202	1314871	1	473	1313902	2	2513	organic	incorrect	1317420	1	474	1316602	1318720	1	474	1316602	2	1216	1319969	1	475	1319302	1322652	1	476	1322002	3	1261	organic	correct	1323951	1	476	1322002	1327017	1	477	1324702	4	424	1327467	1	478	1327402	for_15880.png	for_Seehund.png	for_Mandel.png	ok
62015	09/01/2021 15:34:10	1	63	39511	1330932	1	479	1330102	1333465	1	480	1332802	2	715	organic	incorrect	1334214	1	480	1332802	1336997	1	481	1335502	3	1224	1338246	1	482	1338201	1341062	1	483	1340902	2	1688	organic	correct	1342778	1	483	1340902	1345861	1	484	1343602	2	267	1346160	1	484	1343602	mos_23223.png	mos_Traube.png	mos_Eintagsfliege.png	ok
62015	09/01/2021 15:34:32	1	64	39511	1350076	1	486	1349002	1353308	1	487	1351702	2	1270	inorganic	correct	1354608	1	488	1354401	1357423	1	489	1357102	3	1366	1358823	1	489	1357102	1361905	1	490	1359802	2	1281	inorganic	correct	1363221	1	491	1362501	1367453	1	492	1365202	4	280	1367770	1	492	1365202	maj_01546.png	maj_Krawatte.png	maj_Computermaus.png	ok
62015	09/01/2021 15:34:51	1	65	39511	1371735	1	494	1370601	1373934	1	495	1373302	3	586	organic	correct	1374567	1	495	1373302	1378116	1	496	1376001	4	241	1378383	1	496	1376001	1382048	1	498	1381402	3	1665	organic	correct	1383748	1	498	1381402	1386164	1	499	1384101	4	270	1386463	1	499	1384101	fot_06092.png	fot_Taube.png	fot_Salat.png	ok
62015	09/01/2021 15:35:10	1	66	39511	1390795	1	501	1389502	1392411	1	502	1392201	3	2489	inorganic	incorrect	1394927	1	503	1394901	1396210	1	503	1394901	3	782	1397027	1	503	1394901	1399742	1	504	1397602	2	2592	inorganic	correct	1402358	1	505	1400301	1404891	1	506	1403001	2	2239	1407156	1	507	1405702	mau_58144.png	mau_Leiter.png	mau_Wasserventil.png	ok
62015	09/01/2021 15:35:31	1	67	39511	1410072	1	508	1408401	1412788	1	509	1411101	2	2277	organic	incorrect	1415087	1	510	1413802	1416703	1	511	1416501	2	294	1417020	1	511	1416501	1421168	1	512	1419201	2	2210	organic	correct	1423418	1	513	1421902	1426133	1	514	1424601	4	501	1426666	1	514	1424601	mom_59641.png	mom_Loewe.png	mom_Ei.png	ok
62015	09/01/2021 15:35:52	1	68	39511	1430915	1	516	1430001	1432714	1	516	1430001	2	881	inorganic	correct	1433631	1	517	1432701	1437529	1	518	1435401	4	170	1437729	1	518	1435401	1441411	1	520	1440801	3	820	inorganic	correct	1442261	1	520	1440801	1446976	1	522	1446201	4	283	1447293	1	522	1446201	map_49576.png	map_Globus.png	map_Pfeife.png	ok
62015	09/01/2021 15:36:11	1	69	39511	1451891	1	524	1451601	1454340	1	525	1454301	3	1647	organic	correct	1456023	1	525	1454301	1457856	1	526	1457001	3	974	1458856	1	526	1457001	1462254	1	527	1459701	2	1837	organic	correct	1464120	1	528	1462401	1466286	1	529	1465101	3	1754	1468069	1	530	1467800	foa_00426.png	foa_Aubergine.png	foa_Marienkaefer.png	ok
62015	09/01/2021 15:36:30	1	70	39511	1471601	1	531	1470501	1473717	1	532	1473201	3	884	inorganic	incorrect	1474650	1	532	1473201	1477982	1	533	1475900	2	1155	1479165	1	534	1478601	1481631	1	535	1481301	2	1417	inorganic	correct	1483081	1	535	1481301	1485513	1	536	1484000	4	284	1485830	1	536	1484000	mak_03979.png	mak_Socken.png	mak_Rucksack.png	ok
62015	09/01/2021 15:36:51	1	71	39511	1490478	1	538	1489401	1492394	1	539	1492100	2	1399	inorganic	correct	1493827	1	539	1492100	1497676	1	541	1497501	3	971	1498675	1	541	1497501	1502874	1	542	1500200	3	1081	inorganic	correct	1503990	1	543	1502901	1507939	1	544	1505601	4	278	1508239	1	544	1505601	fai_07637.png	fai_Foehn.png	fai_Kommode.png	ok
62015	09/01/2021 15:37:13	1	72	39511	1511538	1	546	1511001	1515103	1	547	1513700	2	1794	inorganic	correct	1516919	1	548	1516400	1518952	1	548	1516400	3	995	1520018	1	549	1519101	1522651	1	550	1521800	2	2562	inorganic	correct	1525233	1	551	1524500	1527616	1	552	1527201	2	1770	1529415	1	552	1527201	mao_19000.png	mao_Stempel.png	mao_Kegel.png	ok
62015	09/01/2021 15:37:32	1	73	39511	1532731	1	554	1532600	1534430	1	554	1532600	2	1327	inorganic	correct	1535780	1	555	1535301	1538695	1	556	1538000	2	270	1538995	1	556	1538000	1542960	1	557	1540700	2	1703	inorganic	correct	1544693	1	558	1543401	1548042	1	559	1546100	3	590	1548659	1	559	1546100	maw_22459.png	maw_Pingpongschlaeger.png	maw_Schlauchboot.png	ok
62015	09/01/2021 15:37:54	1	74	39511	1552441	1	561	1551500	1555106	1	562	1554200	2	659	organic	incorrect	1555789	1	562	1554200	1559472	1	563	1556900	2	2176	1561671	1	564	1559600	1564753	1	565	1562300	2	2893	organic	incorrect	1567669	1	566	1565000	1569951	1	567	1567700	2	298	1570301	1	567	1567700	foi_05187.png	foi_Pflanze.png	foi_Apfelkuchen.png	ok
62015	09/01/2021 15:38:11	1	75	39511	1573967	1	569	1573100	1575766	1	569	1573100	3	1503	inorganic	incorrect	1577299	1	570	1575800	1579215	1	571	1578500	2	1205	1580448	1	571	1578500	1582580	1	572	1581200	3	2114	inorganic	incorrect	1584730	1	573	1583900	1587479	1	574	1586600	3	1435	1588945	1	574	1586600	fap_17119.png	fap_Knopf.png	fap_Kissen.png	ok
62015	09/01/2021 15:38:30	1	76	39511	1591211	1	575	1589300	1593110	1	576	1592000	2	393	inorganic	correct	1593527	1	576	1592000	1597675	1	578	1597400	4	540	1598242	1	578	1597400	1602190	1	579	1600100	3	1395	inorganic	correct	1603607	1	580	1602800	1606022	1	581	1605500	4	620	1606672	1	581	1605500	mae_36426.png	mae_Schach.png	mae_Taschenrechner.png	ok
62015	09/01/2021 15:38:51	1	77	39511	1609771	1	582	1608200	1613170	1	583	1610900	3	1929	organic	correct	1615136	1	584	1613600	1617469	1	585	1616300	2	281	1617785	1	585	1616300	1621984	1	587	1621700	2	1193	organic	incorrect	1623200	1	587	1621700	1626232	1	588	1624400	3	331	1626599	1	588	1624400	fok_09860.png	fok_Palme.png	fok_Kaenguruh.png	ok
62015	09/01/2021 15:39:12	1	78	39511	1631264	1	590	1629799	1633130	1	591	1632500	3	338	organic	correct	1633496	1	591	1632500	1637412	1	592	1635200	3	219	1637662	1	592	1635200	1642743	1	594	1640600	2	1992	organic	incorrect	1644759	1	595	1643300	1647825	1	596	1645999	3	313	1648175	1	596	1645999	foj_08937.png	foj_Rose.png	foj_Waffel.png	ok
62015	09/01/2021 15:39:32	1	79	39511	1652540	1	598	1651399	1655639	1	599	1654100	2	1540	organic	incorrect	1657205	1	600	1656800	1660054	1	601	1659499	2	276	1660354	1	601	1659499	1663853	1	602	1662200	2	2058	organic	correct	1665935	1	603	1664900	1667985	1	604	1667599	3	522	1668551	1	604	1667599	mot_69770.png	mot_Hotdog.png	mot_Bison.png	ok
62015	09/01/2021 15:39:53	1	80	39511	1671917	1	605	1670300	1674516	1	606	1673000	2	1149	organic	incorrect	1675699	1	606	1673000	1679314	1	608	1678400	2	748	1680097	1	608	1678400	1684429	1	610	1683799	3	2858	organic	correct	1687312	1	611	1686500	1688045	1	611	1686500	3	1411	1689494	1	612	1689200	mof_06901.png	mof_Hahn.png	mof_Spaghetti.png	ok
62015	09/01/2021 15:40:12	1	81	39511	1692960	1	613	1691899	1695642	1	614	1694599	2	209	inorganic	correct	1695875	1	614	1694599	1700457	1	616	1699999	4	268	1700757	1	616	1699999	1704472	1	617	1702700	3	1061	inorganic	correct	1705555	1	618	1705398	1708788	1	619	1708099	4	780	1709604	1	619	1708099	mac_59752.png	mac_Medaille.png	mac_Dartpfeil.png	ok
62015	09/01/2021 15:40:31	1	82	39511	1712203	1	620	1710800	1714852	1	621	1713499	2	2356	inorganic	correct	1717251	1	622	1716198	1718618	1	622	1716198	3	504	1719167	1	623	1718899	1723499	1	624	1721599	3	1069	inorganic	correct	1724599	1	625	1724298	1727298	1	626	1726999	4	323	1727648	1	626	1726999	mai_23761.png	mai_Gewehr.png	mai_Auto.png	ok
62015	09/01/2021 15:40:53	1	83	39511	1730897	1	627	1729699	1733563	1	628	1732398	3	256	organic	correct	1733846	1	628	1732398	1738861	1	630	1737799	4	319	1739211	1	630	1737799	1742943	1	631	1740499	3	995	organic	correct	1743959	1	632	1743198	1748041	1	633	1745898	4	266	1748341	1	633	1745898	moh_07125.png	moh_Muecke.png	moh_Birne.png	ok
62015	09/01/2021 15:41:16	1	84	39511	1752856	1	635	1751299	1755505	1	636	1753998	2	2220	inorganic	correct	1757754	1	637	1756699	1760337	1	638	1759398	2	212	1760587	1	638	1759398	1765568	1	640	1764799	2	2488	inorganic	correct	1768101	1	641	1767498	1770983	1	642	1770199	2	1836	1772849	1	642	1770199	far_06518.png	far_Giesskanne.png	far_Heissluftballon.png	ok
62015	09/01/2021 15:41:37	1	85	39511	1776265	1	644	1775599	1778814	1	645	1778298	3	1156	organic	correct	1779997	1	645	1778298	1783062	1	646	1780998	3	1301	1784395	1	647	1783698	1787911	1	648	1786398	2	1852	organic	correct	1789794	1	649	1789097	1792243	1	650	1791798	4	345	1792626	1	650	1791798	fop_07937.png	fop_Mango.png	fop_Koala.png	ok
62015	09/01/2021 15:41:57	1	86	39511	1797024	1	651	1794498	1800440	1	653	1799898	2	2169	organic	incorrect	1802639	1	654	1802598	1804355	1	654	1802598	3	1807	1806188	1	655	1805297	1807771	1	655	1805297	2	1246	organic	correct	1809037	1	656	1807999	1812736	1	657	1810698	4	254	1813019	1	657	1810698	mou_06524.png	mou_Croissant.png	mou_Kraehe.png	ok
62015	09/01/2021 15:42:17	1	87	39511	1817268	1	659	1816098	1819350	1	660	1818799	0	0	inorganic	miss	1819350	1	661	1821497	1824232	1	662	1824199	2	220	1824482	1	662	1824199	1828797	1	663	1826897	2	1482	inorganic	correct	1830313	1	664	1829598	1834012	1	665	1832299	4	507	1834545	1	665	1832299	fab_06286.png	fab_Staubsauger.png	fab_Kinderwagen.png	ok
62015	09/01/2021 15:42:36	1	88	39511	1837677	1	666	1834997	1840676	1	668	1840398	2	2637	inorganic	correct	1843342	1	669	1843097	1844675	1	669	1843097	2	865	1845575	1	669	1843097	1848624	1	671	1848498	3	1356	inorganic	correct	1850006	1	671	1848498	1852339	1	672	1851197	4	354	1852722	1	672	1851197	fal_07977.png	fal_Buegeleisen.png	fal_Korb.png	ok
62015	09/01/2021 15:42:55	1	89	39511	1856404	1	673	1853897	1858604	1	674	1856598	2	1530	inorganic	correct	1860170	1	675	1859297	1861986	1	675	1859297	2	960	1862969	1	676	1861997	1867184	1	677	1864698	2	2266	inorganic	incorrect	1869500	1	678	1867398	1871616	1	679	1870097	2	312	1871966	1	679	1870097	fax_15310.png	fax_Klebeband.png	fax_Fahrrad.png	ok
62015	09/01/2021 15:43:16	1	90	39511	1875498	1	680	1872797	1877580	1	681	1875497	2	1234	organic	incorrect	1878847	1	682	1878197	1881712	1	683	1880897	3	221	1881962	1	683	1880897	1886494	1	685	1886297	3	1633	organic	incorrect	1888160	1	685	1886297	1891592	1	686	1888997	3	458	1892076	1	687	1891697	mob_22833.png	mob_Igel.png	mob_Kiwi.png	ok
62015	09/01/2021 15:43:37	1	91	39511	1896691	1	688	1894397	1899706	1	689	1897097	3	271	inorganic	incorrect	1900006	1	690	1899797	1903955	1	691	1902498	4	287	1904271	1	691	1902498	1909236	1	693	1907897	2	1751	inorganic	correct	1911019	1	694	1910597	1912852	1	694	1910597	3	2191	1915084	1	695	1913297	fac_02970.png	fac_Haarbuerste.png	fac_Ohrring.png	ok
62015	09/01/2021 15:43:56	1	92	39511	1917584	1	696	1915997	1919500	1	697	1918696	2	1811	organic	incorrect	1921332	1	697	1918696	1923298	1	698	1921397	2	1433	1924765	1	699	1924097	1926897	1	700	1926796	2	1703	organic	correct	1928630	1	700	1926796	1931112	1	701	1929497	4	207	1931346	1	701	1929497	fov_15193.png	fov_Zucchini.png	fov_Fisch.png	ok
62015	09/01/2021 15:44:16	1	93	39511	1936111	1	703	1934896	1938693	1	704	1937597	2	871	inorganic	correct	1939593	1	704	1937597	1942475	1	705	1940297	3	985	1943492	1	706	1942996	1946524	1	707	1945697	3	1060	inorganic	correct	1947607	1	707	1945697	1951789	1	709	1951096	4	187	1952005	1	709	1951096	mat_23754.png	mat_Feuerzeug.png	mat_Helm.png	ok
62015	09/01/2021 15:44:36	1	94	39511	1956071	1	710	1953797	1957653	1	711	1956496	2	531	inorganic	correct	1958220	1	711	1956496	1961702	1	712	1959196	4	258	1961985	1	713	1961898	1966517	1	714	1964596	2	431	inorganic	correct	1967000	1	714	1964596	1972015	1	716	1969997	4	326	1972365	1	716	1969997	mal_20552.png	mal_Drucker.png	mal_Kugelschreiber.png	ok
62015	09/01/2021 15:44:57	1	95	39511	1976264	1	718	1975396	1979646	1	719	1978097	2	494	organic	incorrect	1980162	1	719	1978097	1983295	1	720	1980796	3	1064	1984394	1	721	1983496	1987827	1	722	1986197	3	2445	organic	correct	1990292	1	723	1988896	1991575	1	723	1988896	3	1040	1992642	1	724	1991596	fou_18966.png	fou_Feige.png	fou_Schmetterling.png	ok
62015	09/01/2021 15:45:18	1	96	39511	1996807	1	725	1994297	1998440	1	726	1996996	3	457	inorganic	incorrect	1998923	1	726	1996996	2003538	1	726	1996996	3	925	2004488	1	726	1996996	2008336	1	726	1996996	2	1191	inorganic	correct	2009552	1	726	1996996	2013251	1	726	1996996	3	247	2013551	1	726	1996996	mas_41937.png	mas_Tisch.png	mas_Bueroklammer.png	ok
