ID	DateTime	Run	Delayed_Retrieval_Trial	First_Pulse_Time	FaceRecog_OnsetTime	FaceRecog_OnsetTimeUncertainty	FaceRecog_fMRI_Pulse	FaceRecog_fMRI_PulseTime	Assoc_Retrieval_OnsetTime	Assoc_Retrieval_OnsetTimeUncertainty	Assoc_Retrieval_fMRI_Pulse	Assoc_Retrieval_fMRI_PulseTime	Assoc_Retrieval_Pressed_Button	Assoc_Retrieval_RT	Assoc_Retrieval_Response_Category	Assoc_Retrieval_Accuracy	Assoc_Retrieval_Feedback_OnsetTime	Assoc_Retrieval_Feedback_OnsetTimeUncertainty	Assoc_Retrieval_Feedback_fMRI_Pulse	Assoc_Retrieval_Feedback_fMRI_PulseTime	Retrieval_consc_Rating_OnsetTime	Retrieval_consc_Rating_OnsetTimeUncertainty	Retrieval_consc_Rating_fMRI_Pulse	Retrieval_consc_Rating_fMRI_PulseTime	Retrieval_consc_Rating_Pressed_Button	Retrieval_consc_Rating_RT	Retrieval_consc_Rating_Feedback_OnsetTime	Retrieval_consc_Rating_Feedback_OnsetTimeUncertainty	Retrieval_consc_Rating_Feedback_fMRI_Pulse	Retrieval_consc_Rating_Feedback_fMRI_PulseTime	ForcedChoice_OnsetTime	ForcedChoice_OnsetTimeUncertainty	ForcedChoice_fMRI_Pulse	ForcedChoice_fMRI_PulseTime	ForcedChoice_Pressed_Button	ForcedChoice_RT	ForcedChoice_Response_Category	ForcedChoice_Accuracy	ForcedChoice_Feedback_OnsetTime	ForcedChoice_Feedback_OnsetTimeUncertainty	ForcedChoice_Feedback_fMRI_Pulse	ForcedChoice_Feedback_fMRI_PulseTime	Recognition_consc_Rating_OnsetTime	Recognition_consc_Rating_OnsetTimeUncertainty	Recognition_consc_Rating_fMRI_Pulse	Recognition_consc_Rating_fMRI_PulseTime	Recognition_consc_Rating_Pressed_Button	Recognition_consc_Rating_RT	Recognition_consc_Rating_Feedback_OnsetTime	Recognition_consc_Rating_Feedback_OnsetTimeUncertainty	Recognition_consc_Rating_Feedback_fMRI_Pulse	Recognition_consc_Rating_Feedback_fMRI_PulseTime	Presented_Person	Presented_Target	Presented_Lure	TrialStatus
62038	07/21/2021 14:12:59	1	1	56164	70642	1	6	69643	73691	1	7	72364	0	0	organic	miss	73691	1	8	75064	77757	1	8	75064	4	375	78156	1	9	77763	82022	1	10	80464	2	589	organic	correct	82638	1	10	80464	85604	1	11	83164	4	728	86370	1	12	85863	foq_16799.png	foq_Fenchel.png	foq_Pinguin.png	ok
62038	07/21/2021 14:13:19	1	2	56164	90102	1	13	88564	92118	1	14	91264	2	1975	organic	incorrect	94118	1	15	93963	97017	1	16	96664	2	382	97433	1	16	96664	101982	1	17	99364	3	1875	organic	correct	103881	1	18	102063	105564	1	19	104764	3	345	105947	1	19	104764	moh_06446.png	moh_Muecke.png	moh_Birne.png	ok
62038	07/21/2021 14:13:40	1	3	56164	110229	1	21	110163	112811	1	21	110163	2	435	inorganic	correct	113278	1	22	112864	117077	1	23	115564	3	313	117427	1	23	115564	122108	1	25	120964	2	768	inorganic	correct	122925	1	25	120964	127673	1	27	126363	3	285	127990	1	27	126363	mas_41366.png	mas_Tisch.png	mas_Bueroklammer.png	ok
62038	07/21/2021 14:14:00	1	4	56164	131172	1	28	129064	133205	1	29	131764	2	1616	inorganic	correct	134854	1	30	134463	138486	1	31	137164	2	579	139103	1	31	137164	142018	1	32	139863	2	1515	inorganic	correct	143568	1	33	142563	147150	1	34	145263	3	275	147450	1	34	145263	mal_04470.png	mal_Kugelschreiber.png	mal_Drucker.png	ok
62038	07/21/2021 14:14:20	1	5	56164	150482	1	35	147963	153631	1	37	153364	3	1183	organic	correct	154847	1	37	153364	157146	1	38	156063	3	449	157630	1	38	156063	162028	1	40	161463	3	1774	organic	correct	163828	1	40	161463	165844	1	41	164163	3	383	166260	1	41	164163	foc_02157.png	foc_Brombeere.png	foc_Eule.png	ok
62038	07/21/2021 14:14:42	1	6	56164	170908	1	43	169563	172891	1	44	172263	2	1085	inorganic	correct	174007	1	44	172263	177373	1	45	174963	4	581	177989	1	46	177664	182305	1	47	180363	3	1292	inorganic	correct	183621	1	48	183063	187719	1	49	185763	4	589	188336	1	49	185763	mae_01010.png	mae_Taschenrechner.png	mae_Schach.png	ok
62038	07/21/2021 14:15:03	1	7	56164	192585	1	51	191163	196117	1	52	193863	3	1575	organic	correct	197716	1	53	196563	200265	1	54	199263	2	861	201148	1	54	199263	204580	1	55	201963	2	2242	organic	correct	206846	1	56	204663	208746	1	57	207363	4	1270	210045	1	57	207363	mob_00760.png	mob_Kiwi.png	mob_Igel.png	ok
62038	07/21/2021 14:15:22	1	8	56164	213377	1	59	212763	216693	1	60	215463	2	352	organic	incorrect	217076	1	60	215463	220092	1	61	218162	2	863	221008	1	62	220863	223891	1	63	223563	3	2276	organic	correct	226190	1	63	223563	229139	1	65	228963	3	679	229855	1	65	228963	mof_02408.png	mof_Hahn.png	mof_Spaghetti.png	ok
62038	07/21/2021 14:15:41	1	9	56164	232788	1	66	231663	234820	1	67	234362	2	407	inorganic	correct	235253	1	67	234362	239885	1	69	239763	2	1179	241101	1	69	239763	243867	1	70	242462	3	2596	inorganic	incorrect	246500	1	71	245163	248699	1	72	247862	2	340	249065	1	72	247862	mac_59169.png	mac_Medaille.png	mac_Dartpfeil.png	ok
62038	07/21/2021 14:15:59	1	10	56164	252064	1	73	250562	253964	1	74	253263	3	863	organic	correct	254863	1	74	253263	258146	1	75	255962	2	411	258579	1	75	255962	261961	1	77	261363	3	1818	organic	correct	263810	1	77	261363	266310	1	78	264062	3	317	266660	1	78	264062	mol_07679.png	mol_Schimpanse.png	mol_Pizza.png	ok
62038	07/21/2021 14:16:21	1	11	56164	270125	1	80	269463	271974	1	80	269463	2	630	inorganic	correct	272641	1	81	272162	277189	1	82	274862	3	262	277473	1	82	274862	281604	1	84	280262	2	1881	inorganic	correct	283520	1	85	282962	286519	1	86	285663	3	1299	287852	1	86	285663	maj_01545.png	maj_Computermaus.png	maj_Krawatte.png	ok
62038	07/21/2021 14:16:41	1	12	56164	291368	1	88	291062	293251	1	88	291062	2	854	inorganic	correct	294134	1	89	293762	298415	1	90	296462	4	299	298749	1	90	296462	303047	1	92	301862	3	1128	inorganic	correct	304197	1	92	301862	308146	1	94	307262	4	431	308612	1	94	307262	fab_06018.png	fab_Kinderwagen.png	fab_Staubsauger.png	ok
62038	07/21/2021 14:17:02	1	13	56164	311994	1	95	309962	313660	1	96	312662	3	1850	organic	correct	315543	1	97	315362	318525	1	98	318062	2	373	318942	1	98	318062	323440	1	99	320762	3	2218	organic	incorrect	325690	1	100	323462	327872	1	101	326162	2	274	328172	1	101	326162	fop_00621.png	fop_Mango.png	fop_Koala.png	ok
62038	07/21/2021 14:17:20	1	14	56164	332887	1	103	331562	335470	1	104	334262	3	1117	inorganic	incorrect	336619	1	104	334262	339235	1	105	336962	2	1929	341201	1	106	339662	342634	1	107	342362	2	2248	inorganic	correct	344916	1	107	342362	346466	1	108	345062	3	1689	348182	1	109	347762	far_00736.png	far_Giesskanne.png	far_Heissluftballon.png	ok
62038	07/21/2021 14:17:39	1	15	56164	350581	1	110	350462	353264	1	111	353162	2	730	inorganic	correct	354030	1	111	353162	357012	1	112	355861	3	878	357912	1	112	355861	360728	1	113	358562	3	2119	inorganic	incorrect	362877	1	114	361262	366193	1	115	363961	2	368	366592	1	115	363961	map_41499.png	map_Pfeife.png	map_Globus.png	ok
62038	07/21/2021 14:18:01	1	16	56164	370308	1	117	369362	372157	1	118	372061	2	1311	inorganic	correct	373490	1	118	372061	377222	1	119	374762	2	629	377889	1	120	377462	381138	1	121	380161	2	2143	inorganic	incorrect	383303	1	122	382862	386203	1	123	385562	3	314	386552	1	123	385562	fan_17286.png	fan_Klavier.png	fan_Lampe.png	ok
62038	07/21/2021 14:18:23	1	17	56164	391384	1	125	390962	394000	1	126	393662	2	1586	inorganic	correct	395616	1	126	393662	398765	1	127	396361	3	1068	399865	1	128	399062	403113	1	129	401762	2	1982	inorganic	incorrect	405129	1	130	404461	408678	1	131	407162	2	285	408995	1	131	407162	fai_07494.png	fai_Kommode.png	fai_Foehn.png	ok
62038	07/21/2021 14:18:44	1	18	56164	413743	1	133	412561	416992	1	134	415262	3	691	organic	correct	417725	1	134	415262	421324	1	136	420661	2	919	422274	1	136	420661	426139	1	138	426061	3	2878	organic	incorrect	429038	1	139	428761	430371	1	139	428761	2	1050	431454	1	139	428761	foe_08236.png	foe_Adler.png	foe_Tannenzapfen.png	ok
62038	07/21/2021 14:19:03	1	19	56164	434719	1	141	434161	437502	1	142	436861	3	1563	inorganic	incorrect	439101	1	142	436861	441134	1	143	439562	2	1664	442833	1	144	442261	445566	1	145	444961	3	2166	inorganic	correct	447765	1	146	447662	450181	1	146	447662	3	344	450547	1	147	450361	mao_11634.png	mao_Kegel.png	mao_Stempel.png	ok
62038	07/21/2021 14:19:26	1	20	56164	453896	1	148	453061	457312	1	149	455762	3	673	inorganic	incorrect	458012	1	149	455762	461977	1	151	461161	2	2406	464409	1	152	463862	467142	1	153	466561	2	2327	inorganic	correct	469508	1	154	469261	471924	1	154	469261	3	676	472623	1	155	471961	mak_00987.png	mak_Socken.png	mak_Rucksack.png	ok
62038	07/21/2021 14:19:46	1	21	56164	477155	1	156	474661	479604	1	157	477361	3	1743	organic	correct	481370	1	158	480061	484086	1	159	482761	2	426	484536	1	159	482761	487885	1	160	485461	2	1239	organic	incorrect	489151	1	161	488161	492233	1	162	490861	3	399	492667	1	162	490861	foj_08220.png	foj_Waffel.png	foj_Rose.png	ok
62038	07/21/2021 14:20:08	1	22	56164	496365	1	164	496261	499498	1	165	498961	3	1629	organic	correct	501164	1	165	498961	504812	1	167	504361	2	914	505762	1	167	504361	509528	1	168	507061	3	2316	organic	correct	511877	1	169	509761	514009	1	170	512461	2	300	514343	1	170	512461	fov_15046.png	fov_Fisch.png	fov_Zucchini.png	ok
62038	07/21/2021 14:20:25	1	23	56164	518758	1	172	517860	520757	1	173	520561	2	1110	organic	incorrect	521890	1	173	520561	524606	1	174	523261	2	1096	525739	1	174	523261	528021	1	175	525960	2	689	organic	correct	528738	1	176	528661	531603	1	177	531362	4	340	531970	1	177	531362	moj_11821.png	moj_Walnuss.png	moj_Blatt.png	ok
62038	07/21/2021 14:20:46	1	24	56164	535635	1	178	534060	537885	1	179	536761	3	2331	organic	correct	540251	1	180	539461	542350	1	181	542160	2	741	543116	1	181	542160	546448	1	182	544861	0	0	organic	miss	546448	1	183	547561	551497	1	184	550260	3	271	551797	1	184	550260	mon_65798.png	mon_Fuchs.png	mon_Kartoffel.png	ok
62038	07/21/2021 14:21:07	1	25	56164	556795	1	186	555661	559877	1	187	558360	2	1318	organic	incorrect	561227	1	188	561061	564292	1	189	563761	3	590	564926	1	189	563761	569641	1	191	569161	3	2248	organic	incorrect	571923	1	192	571860	573506	1	192	571860	3	1049	574589	1	192	571860	mos_20953.png	mos_Traube.png	mos_Eintagsfliege.png	ok
62038	07/21/2021 14:21:29	1	26	56164	578004	1	194	577261	581370	1	195	579960	3	1488	organic	correct	582886	1	196	582660	586218	1	197	585361	3	941	587185	1	197	585361	590300	1	198	588060	2	2321	organic	incorrect	592650	1	199	590760	594732	1	200	593461	2	397	595165	1	200	593461	foi_03389.png	foi_Pflanze.png	foi_Apfelkuchen.png	ok
62038	07/21/2021 14:21:46	1	27	56164	599497	1	202	598860	601197	1	202	598860	2	2465	inorganic	correct	603696	1	203	601561	605079	1	204	604260	3	646	605762	1	204	604260	608444	1	205	606960	3	2028	inorganic	correct	610494	1	206	609661	613659	1	207	612360	3	219	613926	1	207	612360	mau_49693.png	mau_Wasserventil.png	mau_Leiter.png	ok
62038	07/21/2021 14:22:06	1	28	56164	617125	1	208	615060	619241	1	209	617761	3	1673	organic	correct	620940	1	210	620460	624472	1	211	623160	2	1202	625705	1	211	623160	628871	1	213	628560	3	1705	organic	incorrect	630603	1	213	628560	633102	6	214	631260	2	659	633786	1	214	631260	foa_00207.png	foa_Aubergine.png	foa_Marienkaefer.png	ok
62038	07/21/2021 14:22:27	1	29	56164	636635	1	215	633960	640117	1	217	639360	3	1636	inorganic	incorrect	641783	1	217	639360	644365	1	218	642060	3	375	644765	1	218	642060	648564	1	220	647460	2	2435	inorganic	correct	651030	1	221	650160	653679	1	222	652860	3	506	654212	1	222	652860	fat_12032.png	fat_Kleiderbuegel.png	fat_Einkaufswagen.png	ok
62038	07/21/2021 14:22:47	1	30	56164	658277	1	223	655560	660143	1	224	658260	3	1416	inorganic	incorrect	661593	1	225	660960	664775	1	226	663660	3	1378	666208	1	226	663660	669390	1	228	669060	3	2161	inorganic	correct	671573	1	228	669060	673955	1	229	671760	3	303	674289	1	229	671760	fax_14883.png	fax_Fahrrad.png	fax_Klebeband.png	ok
62038	07/21/2021 14:23:07	1	31	56164	678087	1	231	677160	679753	1	231	677160	3	1099	organic	correct	680886	1	232	679859	684202	1	233	682560	2	989	685218	1	233	682560	688817	1	235	687959	3	2284	organic	incorrect	691133	1	236	690660	692516	1	236	690660	2	386	692932	1	236	690660	for_15187.png	for_Mandel.png	for_Seehund.png	ok
62038	07/21/2021 14:23:27	1	32	56164	697581	1	238	696059	699480	1	239	698760	2	2149	inorganic	correct	701663	1	240	701460	704812	1	241	704159	2	493	705328	1	241	704159	708827	1	242	706860	3	1975	inorganic	correct	710826	1	243	709560	713859	1	244	712259	4	1651	715558	1	245	714960	faw_14215.png	faw_Hufeisen.png	faw_Kuechenmaschine.png	ok
62038	07/21/2021 14:23:48	1	33	56164	718091	1	246	717660	720640	1	247	720359	2	2430	inorganic	correct	723106	1	248	723060	724288	1	248	723060	2	1077	725388	1	248	723060	728504	1	250	728459	2	2400	inorganic	incorrect	730936	1	250	728459	734052	1	252	733859	2	438	734518	1	252	733859	mai_06530.png	mai_Gewehr.png	mai_Auto.png	ok
62038	07/21/2021 14:24:11	1	34	56164	738550	1	253	736559	742049	1	255	741959	2	1009	organic	incorrect	743082	1	255	741959	746964	1	256	744659	2	1626	748614	1	257	747360	752212	1	258	750059	2	1918	organic	incorrect	754162	1	259	752759	756861	1	260	755460	3	338	757227	1	260	755460	mog_03090.png	mog_Pilz.png	mog_Fledermaus.png	ok
62038	07/21/2021 14:24:30	1	35	56164	762126	1	262	760859	763875	1	263	763560	3	783	inorganic	incorrect	764708	1	263	763560	767557	1	264	766259	2	995	768574	1	264	766259	772722	1	266	771660	3	2479	inorganic	incorrect	775221	1	267	774359	776554	1	267	774359	3	631	777221	1	268	777059	fac_02146.png	fac_Ohrring.png	fac_Haarbuerste.png	ok
62038	07/21/2021 14:24:49	1	36	56164	780503	1	269	779759	783235	1	270	782459	2	1369	organic	incorrect	784635	1	270	782459	786734	1	271	785159	3	1070	787834	1	271	785159	790516	1	272	787859	2	2895	organic	correct	793432	1	274	793259	794631	1	274	793259	3	316	794981	1	274	793259	fot_00797.png	fot_Salat.png	fot_Taube.png	ok
62038	07/21/2021 14:25:11	1	37	56164	799930	1	276	798659	803029	1	277	801359	2	681	inorganic	correct	803745	1	277	801359	807977	1	279	806759	3	1170	809176	1	279	806759	812659	1	281	812159	3	1581	inorganic	incorrect	814291	1	281	812159	817524	1	282	814859	2	325	817874	1	283	817559	faj_07783.png	faj_Parfuem.png	faj_Schuh.png	ok
62038	07/21/2021 14:25:33	1	38	56164	821889	1	284	820259	825304	1	285	822959	2	678	organic	incorrect	826004	1	286	825659	829836	1	287	828359	3	362	830236	1	287	828359	833318	1	288	831059	0	0	organic	miss	833318	1	289	833759	838533	1	290	836459	2	710	839266	1	291	839159	mom_59361.png	mom_Ei.png	mom_Loewe.png	ok
62038	07/21/2021 14:25:53	1	39	56164	843432	1	292	841858	846164	1	293	844559	2	303	organic	incorrect	846497	1	293	844559	850346	1	295	849958	3	1189	851562	1	295	849958	854694	1	296	852659	3	1600	organic	correct	856327	1	297	855359	858960	1	298	858058	3	308	859293	1	298	858058	mou_01862.png	mou_Kraehe.png	mou_Croissant.png	ok
62038	07/21/2021 14:26:11	1	40	56164	863941	1	300	863459	865774	1	300	863459	3	1958	organic	correct	867757	1	301	866158	870223	1	302	868859	2	1169	871422	1	302	868859	874688	1	304	874258	3	1558	organic	incorrect	876271	1	304	874258	878286	1	305	876959	2	486	878803	1	305	876959	fou_17118.png	fou_Schmetterling.png	fou_Feige.png	ok
62038	07/21/2021 14:26:30	1	41	56164	881652	1	306	879659	883401	1	307	882358	3	967	organic	correct	884401	1	307	882358	888700	1	309	887758	2	603	889333	1	309	887758	892282	1	310	890458	3	2064	organic	correct	894381	1	311	893159	895964	1	312	895858	3	670	896664	1	312	895858	moe_02012.png	moe_Waschbaer.png	moe_Pommes.png	ok
62038	07/21/2021 14:26:50	1	42	56164	900612	1	313	898558	903428	1	314	901259	3	1129	organic	correct	904594	1	315	903958	907210	1	316	906658	2	807	908043	1	316	906658	911625	1	317	909359	2	1905	organic	correct	913575	1	318	912058	916957	1	319	914758	3	479	917473	1	319	914758	fok_09378.png	fok_Kaenguruh.png	fok_Palme.png	ok
62038	07/21/2021 14:27:08	1	43	56164	920589	1	321	920158	922188	1	321	920158	3	1761	inorganic	incorrect	923971	1	322	922858	926870	1	323	925559	3	648	927553	1	323	925559	930252	1	324	928258	3	1281	inorganic	correct	931569	1	325	930958	934034	1	326	933659	3	1079	935151	1	326	933659	maw_04767.png	maw_Pingpongschlaeger.png	maw_Schlauchboot.png	ok
62038	07/21/2021 14:27:30	1	44	56164	938883	1	327	936358	942298	1	329	941758	3	2353	inorganic	incorrect	944681	1	330	944458	945964	1	330	944458	2	920	946913	1	330	944458	951179	1	332	949858	3	2011	inorganic	correct	953211	1	333	952558	956627	1	334	955258	3	1828	958493	1	335	957958	fap_16329.png	fap_Kissen.png	fap_Knopf.png	ok
62038	07/21/2021 14:27:49	1	45	56164	961259	1	336	960658	963291	1	336	960658	3	1459	inorganic	incorrect	964774	1	337	963358	967240	1	338	966058	3	502	967773	1	338	966058	970989	1	339	968758	3	1169	inorganic	correct	972188	1	340	971458	976020	1	341	974158	3	560	976603	1	341	974158	mat_23275.png	mat_Helm.png	mat_Feuerzeug.png	ok
62038	07/21/2021 14:28:11	1	46	56164	980335	1	343	979558	983384	1	344	982258	0	0	inorganic	miss	983384	1	345	984958	988399	1	346	987658	3	794	989216	1	346	987658	992531	1	347	990358	3	1124	inorganic	incorrect	993681	1	348	993058	998013	1	349	995757	3	305	998346	1	349	995757	fal_07906.png	fal_Buegeleisen.png	fal_Korb.png	ok
62038	07/21/2021 14:28:28	1	47	56164	1001745	1	351	1001158	1004011	1	352	1003857	3	1604	inorganic	incorrect	1005644	1	352	1003857	1007360	1	353	1006558	3	2076	1009476	1	354	1009258	1010858	1	354	1009258	2	1835	inorganic	correct	1012724	1	355	1011957	1015324	1	356	1014659	2	594	1015940	1	356	1014659	fag_06539.png	fag_Geschenk.png	fag_Portemonnaie.png	ok
62038	07/21/2021 14:28:49	1	48	56164	1019172	1	357	1017358	1022388	1	358	1020057	3	809	organic	correct	1023221	1	359	1022758	1027519	1	360	1025458	3	631	1028186	1	360	1025458	1032385	1	362	1030858	3	2170	organic	incorrect	1034584	1	363	1033558	1036500	1	364	1036257	2	699	1037233	1	364	1036257	mot_69374.png	mot_Bison.png	mot_Hotdog.png	ok
62038	07/21/2021 14:29:09	1	49	56164	1039932	1	365	1038958	1043181	1	366	1041657	3	338	organic	correct	1043547	1	366	1041657	1046596	1	367	1044357	3	803	1047429	1	368	1047058	1051911	1	369	1049757	2	1297	organic	correct	1053244	1	370	1052457	1055743	1	371	1055158	3	1349	1057126	1	371	1055158	moh_07125.png	moh_Birne.png	moh_Muecke.png	ok
62038	07/21/2021 14:29:29	1	50	56164	1060175	1	372	1057857	1062274	1	373	1060557	2	668	inorganic	correct	1062974	1	373	1060557	1066140	1	375	1065957	2	771	1066940	1	375	1065957	1070222	1	376	1068657	2	1571	inorganic	correct	1071821	1	377	1071358	1074220	1	378	1074057	3	339	1074587	1	378	1074057	mal_20552.png	mal_Drucker.png	mal_Kugelschreiber.png	ok
62038	07/21/2021 14:29:50	1	51	56164	1079419	1	379	1076757	1081185	1	380	1079458	2	1606	organic	incorrect	1082817	1	381	1082157	1086000	1	382	1084857	2	728	1086749	1	382	1084857	1091081	1	384	1090257	2	1452	organic	correct	1092564	1	384	1090257	1095830	1	386	1095657	4	364	1096230	1	386	1095657	foq_17341.png	foq_Pinguin.png	foq_Fenchel.png	ok
62038	07/21/2021 14:30:08	1	52	56164	1100562	1	387	1098357	1102294	1	388	1101057	2	1416	inorganic	correct	1103744	1	388	1101057	1105826	1	389	1103757	3	1984	1107859	1	390	1106457	1110925	1	391	1109157	2	1313	inorganic	correct	1112274	1	392	1111857	1114857	1	393	1114557	3	535	1115423	1	393	1114557	mas_41937.png	mas_Bueroklammer.png	mas_Tisch.png	ok
62038	07/21/2021 14:30:26	1	53	56164	1118389	1	394	1117257	1120188	1	395	1119957	3	475	organic	correct	1120688	1	395	1119957	1124687	1	396	1122657	3	370	1125087	1	396	1122657	1128602	1	398	1128058	2	1456	organic	incorrect	1130085	1	398	1128058	1132751	1	399	1130757	3	1403	1134183	1	400	1133457	mof_06901.png	mof_Spaghetti.png	mof_Hahn.png	ok
62038	07/21/2021 14:30:46	1	54	56164	1136433	1	401	1136158	1138349	1	401	1136158	3	958	organic	correct	1139332	1	402	1138857	1141981	1	403	1141556	2	761	1142764	1	403	1141556	1146646	1	404	1144257	3	1092	organic	correct	1147762	1	405	1146957	1151694	1	406	1149656	3	336	1152061	1	406	1149656	foc_02664.png	foc_Eule.png	foc_Brombeere.png	ok
62038	07/21/2021 14:31:05	1	55	56164	1156425	6	408	1155057	1159625	1	409	1157756	3	766	inorganic	incorrect	1160425	1	409	1157756	1164157	1	411	1163157	3	944	1165123	1	411	1163157	1168155	1	412	1165856	2	1847	inorganic	correct	1170038	1	413	1168557	1171904	1	414	1171257	4	492	1172421	1	414	1171257	mae_36426.png	mae_Schach.png	mae_Taschenrechner.png	ok
62038	07/21/2021 14:31:25	1	56	56164	1175903	1	415	1173956	1178802	1	416	1176657	2	1416	organic	incorrect	1180251	1	417	1179357	1182600	1	418	1182056	3	972	1183600	1	418	1182056	1186799	1	419	1184757	2	1348	organic	correct	1188182	1	420	1187458	1192247	1	421	1190156	3	1252	1193530	1	422	1192857	mob_22833.png	mob_Igel.png	mob_Kiwi.png	ok
62038	07/21/2021 14:31:45	1	57	56164	1195746	1	423	1195557	1198945	1	424	1198256	2	1331	organic	incorrect	1200311	1	424	1198256	1203310	1	425	1200957	2	518	1203860	1	426	1203656	1207209	1	427	1206356	2	1284	organic	correct	1208542	1	427	1206356	1211524	1	428	1209057	2	689	1212240	1	429	1211756	mol_11363.png	mol_Pizza.png	mol_Schimpanse.png	ok
62038	07/21/2021 14:32:03	1	58	56164	1215656	1	430	1214456	1218255	1	431	1217157	3	287	inorganic	incorrect	1218572	1	431	1217157	1221821	1	432	1219856	3	533	1222387	1	432	1219856	1225936	1	434	1225258	2	919	inorganic	correct	1226886	1	434	1225258	1230934	1	436	1230656	3	332	1231301	1	436	1230656	fab_06286.png	fab_Staubsauger.png	fab_Kinderwagen.png	ok
62038	07/21/2021 14:32:24	1	59	56164	1234333	1	437	1233357	1236566	1	438	1236057	3	1300	inorganic	incorrect	1237899	1	438	1236057	1240664	1	439	1238757	3	571	1241264	1	439	1238757	1245263	1	441	1244156	2	1728	inorganic	correct	1247012	1	442	1246856	1250311	1	443	1249556	3	1035	1251377	1	443	1249556	mac_59752.png	mac_Dartpfeil.png	mac_Medaille.png	ok
62038	07/21/2021 14:32:46	1	60	56164	1255243	1	445	1254957	1257659	1	445	1254957	3	411	inorganic	incorrect	1258108	1	446	1257657	1261057	1	447	1260357	2	717	1261807	1	447	1260357	1266106	1	449	1265756	3	765	inorganic	correct	1266905	1	449	1265756	1271620	1	451	1271157	2	763	1272420	1	451	1271157	maj_01546.png	maj_Krawatte.png	maj_Computermaus.png	ok
62038	07/21/2021 14:33:07	1	61	56164	1276752	1	453	1276557	1279201	1	453	1276557	0	0	organic	miss	1279201	1	454	1279257	1283566	1	455	1281957	3	647	1284250	1	455	1281957	1288581	1	457	1287357	3	1443	organic	incorrect	1290048	1	457	1287357	1293430	1	459	1292757	3	298	1293763	1	459	1292757	fop_07937.png	fop_Koala.png	fop_Mango.png	ok
62038	07/21/2021 14:33:25	1	62	56164	1297395	1	460	1295456	1300094	1	461	1298157	2	918	inorganic	correct	1301044	1	462	1300857	1304876	1	463	1303556	3	538	1305459	1	463	1303556	1308708	1	464	1306257	3	834	inorganic	correct	1309574	1	465	1308957	1312323	1	466	1311656	2	1504	1313856	1	466	1311656	fan_18894.png	fan_Lampe.png	fan_Klavier.png	ok
62038	07/21/2021 14:33:46	1	63	56164	1316305	1	467	1314357	1318271	1	468	1317057	2	1026	inorganic	correct	1319321	1	468	1317057	1323553	1	470	1322457	4	261	1323836	1	470	1322457	1327518	1	471	1325157	3	1196	inorganic	correct	1328735	1	472	1327856	1333083	1	473	1330557	3	1186	1334299	1	474	1333257	far_06518.png	far_Heissluftballon.png	far_Giesskanne.png	ok
62038	07/21/2021 14:34:04	1	64	56164	1337065	1	475	1335956	1339081	1	476	1338657	3	2737	inorganic	incorrect	1341847	1	477	1341356	1342630	1	477	1341356	3	501	1343163	1	477	1341356	1347328	1	479	1346757	3	2117	inorganic	incorrect	1349478	1	479	1346757	1351693	1	480	1349456	2	395	1352110	1	480	1349456	map_49576.png	map_Globus.png	map_Pfeife.png	ok
62038	07/21/2021 14:34:23	1	65	56164	1355242	1	482	1354857	1357941	1	483	1357556	3	1126	inorganic	incorrect	1359091	1	483	1357556	1361623	1	484	1360256	2	979	1362640	1	484	1360256	1366438	1	486	1365656	3	899	inorganic	incorrect	1367371	1	486	1365656	1370221	1	487	1368356	2	790	1371037	1	487	1368356	fai_07637.png	fai_Foehn.png	fai_Kommode.png	ok
62038	07/21/2021 14:34:41	1	66	56164	1373653	1	488	1371057	1375852	1	489	1373756	2	744	inorganic	correct	1376618	1	490	1376456	1379801	1	491	1379157	3	652	1380484	1	491	1379157	1384749	1	493	1384556	3	1272	inorganic	correct	1386049	1	493	1384556	1388614	1	494	1387257	3	2178	1390814	1	495	1389956	mak_03979.png	mak_Rucksack.png	mak_Socken.png	ok
62038	07/21/2021 14:35:02	1	67	56164	1392313	1	495	1389956	1394562	1	496	1392656	3	2090	inorganic	incorrect	1396678	1	497	1395356	1398494	1	498	1398056	2	917	1399444	1	498	1398056	1402160	1	499	1400756	3	1221	inorganic	correct	1403426	1	499	1400756	1407325	1	501	1406156	2	250	1407608	1	501	1406156	mao_19000.png	mao_Stempel.png	mao_Kegel.png	ok
62038	07/21/2021 14:35:22	1	68	56164	1412540	1	503	1411556	1414905	1	504	1414256	3	1134	organic	correct	1416072	1	504	1414256	1419770	1	506	1419656	3	312	1420120	1	506	1419656	1423169	1	507	1422356	3	1187	organic	correct	1424386	1	507	1422356	1428051	1	509	1427756	3	302	1428384	1	509	1427756	foe_08514.png	foe_Tannenzapfen.png	foe_Adler.png	ok
62038	07/21/2021 14:35:42	1	69	56164	1432533	1	510	1430456	1435715	1	511	1433156	3	1301	organic	correct	1437048	1	512	1435856	1439564	1	513	1438556	3	1424	1441013	1	513	1438556	1444329	1	515	1443956	3	1474	organic	incorrect	1445828	1	515	1443956	1448044	1	516	1446656	3	725	1448794	1	516	1446656	mon_69587.png	mon_Kartoffel.png	mon_Fuchs.png	ok
62038	07/21/2021 14:36:02	1	70	56164	1453276	1	518	1452056	1456242	1	519	1454756	3	646	organic	correct	1456925	1	519	1454756	1460523	1	521	1460156	3	661	1461206	1	521	1460156	1464539	1	522	1462856	2	1121	organic	incorrect	1465688	1	523	1465555	1468387	1	524	1468256	3	708	1469120	1	524	1468256	foj_08937.png	foj_Rose.png	foj_Waffel.png	ok
62038	07/21/2021 14:36:22	1	71	56164	1472519	1	525	1470956	1475952	1	526	1473655	3	317	organic	correct	1476301	1	526	1473655	1480217	1	528	1479056	3	544	1480783	1	528	1479056	1483965	1	529	1481755	3	1121	organic	correct	1485115	1	530	1484456	1487614	1	531	1487156	0	0	1487614	1	532	1489855	fov_15193.png	fov_Zucchini.png	fov_Fisch.png	ok
62038	07/21/2021 14:36:44	1	72	56164	1492563	1	532	1489855	1495512	1	534	1495255	2	293	organic	incorrect	1495828	1	534	1495255	1500726	1	536	1500656	3	381	1501143	1	536	1500656	1506025	1	537	1503355	3	1069	organic	correct	1507124	1	538	1506055	1511340	1	539	1508756	3	1002	1512373	1	540	1511455	moj_11860.png	moj_Blatt.png	moj_Walnuss.png	ok
62038	07/21/2021 14:37:04	1	73	56164	1515038	1	541	1514155	1517221	1	542	1516856	3	835	organic	correct	1518087	1	542	1516856	1522536	1	544	1522255	3	748	1523319	1	544	1522255	1527001	1	545	1524956	2	808	organic	incorrect	1527834	1	546	1527655	1531433	1	547	1530355	2	383	1531849	1	547	1530355	foa_00426.png	foa_Marienkaefer.png	foa_Aubergine.png	ok
62038	07/21/2021 14:37:25	1	74	56164	1534782	1	548	1533056	1537181	1	549	1535755	3	516	organic	correct	1537731	1	549	1535755	1541413	1	551	1541155	2	1425	1542862	1	551	1541155	1546078	1	552	1543855	3	1856	organic	incorrect	1547961	1	553	1546555	1550260	1	554	1549255	2	709	1551026	1	554	1549255	mos_23223.png	mos_Eintagsfliege.png	mos_Traube.png	ok
62038	07/21/2021 14:37:45	1	75	56164	1555641	1	556	1554655	1557557	1	557	1557355	2	928	inorganic	correct	1558507	1	557	1557355	1560973	1	558	1560055	2	1212	1562222	1	558	1560055	1566138	1	560	1565455	2	1417	inorganic	correct	1567587	1	560	1565455	1570986	1	562	1570855	2	907	1571919	1	562	1570855	mau_58144.png	mau_Leiter.png	mau_Wasserventil.png	ok
62038	07/21/2021 14:38:03	1	76	56164	1575451	1	563	1573555	1577601	1	564	1576255	3	632	organic	correct	1578267	1	564	1576255	1581816	1	566	1581655	3	816	1582666	1	566	1581655	1585831	1	567	1584355	3	2242	organic	incorrect	1588097	1	568	1587055	1590263	1	569	1589755	2	455	1590746	1	569	1589755	foi_05187.png	foi_Apfelkuchen.png	foi_Pflanze.png	ok
62038	07/21/2021 14:38:22	1	77	56164	1594028	1	570	1592455	1595978	1	571	1595154	2	1357	inorganic	correct	1597361	1	571	1595154	1600260	1	572	1597855	2	1004	1601309	1	573	1600555	1604375	1	574	1603254	2	1478	inorganic	incorrect	1605874	1	574	1603254	1608790	1	576	1608655	3	1716	1610539	1	576	1608655	fat_14140.png	fat_Einkaufswagen.png	fat_Kleiderbuegel.png	ok
62038	07/21/2021 14:38:43	1	78	56164	1612755	1	577	1611354	1614905	1	578	1614055	3	858	inorganic	incorrect	1615788	1	578	1614055	1619520	1	580	1619454	2	872	1620419	1	580	1619454	1624135	1	581	1622155	3	1250	inorganic	incorrect	1625418	1	582	1624855	1629150	1	583	1627554	2	731	1629916	1	583	1627554	fax_15310.png	fax_Klebeband.png	fax_Fahrrad.png	ok
62038	07/21/2021 14:39:04	1	79	56164	1634348	1	585	1632955	1637247	1	586	1635654	3	286	organic	correct	1637564	1	586	1635654	1642229	1	588	1641054	3	992	1643245	1	588	1641054	1646994	1	590	1646455	2	1032	organic	correct	1648060	1	590	1646455	1651192	1	591	1649154	2	541	1651776	1	591	1649154	for_15880.png	for_Seehund.png	for_Mandel.png	ok
62038	07/21/2021 14:39:23	1	80	56164	1654541	1	592	1651854	1656957	1	593	1654555	2	685	inorganic	correct	1657674	1	594	1657254	1661889	1	595	1659954	3	731	1662655	1	595	1659954	1666037	1	597	1665354	3	2110	inorganic	correct	1668170	1	598	1668054	1669969	1	598	1668054	3	904	1670902	1	599	1670755	faw_14685.png	faw_Kuechenmaschine.png	faw_Hufeisen.png	ok
62038	07/21/2021 14:39:41	1	81	56164	1673701	1	600	1673454	1675717	1	600	1673454	2	1833	organic	incorrect	1677583	1	601	1676154	1679433	1	602	1678855	2	675	1680133	1	602	1678855	1683631	1	603	1681554	3	2411	organic	incorrect	1686064	1	604	1684254	1687780	1	605	1686955	2	432	1688247	1	605	1686955	mog_03277.png	mog_Fledermaus.png	mog_Pilz.png	ok
62038	07/21/2021 14:40:00	1	82	56164	1692312	1	606	1689654	1694511	1	607	1692354	3	891	inorganic	incorrect	1695427	1	608	1695054	1698227	1	609	1697754	2	889	1699160	1	609	1697754	1701825	1	610	1700454	0	0	inorganic	miss	1701825	1	611	1703154	1706074	1	612	1705854	3	357	1706457	1	612	1705854	fac_02970.png	fac_Haarbuerste.png	fac_Ohrring.png	ok
62038	07/21/2021 14:40:20	1	83	56164	1710789	1	613	1708554	1712588	1	614	1711254	2	2005	inorganic	correct	1714621	1	615	1713954	1717137	1	616	1716654	3	331	1717503	1	616	1716654	1721869	1	617	1719354	2	1135	inorganic	incorrect	1723035	1	618	1722054	1726983	1	619	1724754	4	341	1727350	1	619	1724754	mai_23761.png	mai_Auto.png	mai_Gewehr.png	ok
62038	07/21/2021 14:40:39	1	84	56164	1731165	1	621	1730154	1733015	1	622	1732854	2	1115	organic	incorrect	1734164	1	622	1732854	1737430	1	623	1735554	3	663	1738130	1	623	1735554	1741579	1	625	1740954	3	1438	organic	correct	1743045	1	625	1740954	1746327	1	626	1743654	3	466	1746827	1	627	1746354	fot_06092.png	fot_Taube.png	fot_Salat.png	ok
62038	07/21/2021 14:41:01	1	85	56164	1750342	1	628	1749053	1752375	1	629	1751754	3	467	inorganic	incorrect	1752875	1	629	1751754	1756490	1	630	1754454	3	508	1757023	1	630	1754454	1761572	1	632	1759854	2	2074	inorganic	incorrect	1763671	1	633	1762554	1766620	1	634	1765253	2	1519	1768170	1	635	1767954	faj_07849.png	faj_Schuh.png	faj_Parfuem.png	ok
62038	07/21/2021 14:41:22	1	86	56164	1771652	1	636	1770654	1774501	1	637	1773353	0	0	organic	miss	1774501	1	638	1776054	1779466	1	639	1778754	3	527	1780016	1	639	1778754	1783731	1	640	1781453	2	1699	organic	incorrect	1785464	1	641	1784154	1788996	1	642	1786854	2	597	1789629	1	643	1789553	mom_59641.png	mom_Loewe.png	mom_Ei.png	ok
62038	07/21/2021 14:41:40	1	87	56164	1793178	1	644	1792254	1795260	1	645	1794953	2	1148	organic	incorrect	1796443	1	645	1794953	1799826	1	646	1797653	2	570	1800442	1	647	1800354	1803374	1	648	1803053	2	1046	organic	correct	1804441	1	648	1803053	1807406	1	649	1805753	3	585	1808023	1	649	1805753	fou_18966.png	fou_Feige.png	fou_Schmetterling.png	ok
62038	07/21/2021 14:42:01	1	88	56164	1811022	1	650	1808454	1813221	1	651	1811153	2	596	organic	incorrect	1813854	1	651	1811153	1818219	1	653	1816554	2	854	1819102	1	653	1816554	1823534	1	655	1821953	2	1743	organic	correct	1825300	1	656	1824654	1828932	1	657	1827353	3	418	1829382	1	657	1827353	mou_06524.png	mou_Croissant.png	mou_Kraehe.png	ok
62038	07/21/2021 14:42:23	1	89	56164	1832281	1	658	1830053	1835397	1	659	1832753	2	634	organic	incorrect	1836063	1	660	1835453	1839579	1	661	1838153	2	409	1840012	1	661	1838153	1844327	1	663	1843553	3	1809	organic	correct	1846160	1	663	1843553	1849442	1	665	1848953	3	753	1850242	1	665	1848953	fok_09860.png	fok_Palme.png	fok_Kaenguruh.png	ok
62038	07/21/2021 14:42:44	1	90	56164	1854041	1	666	1851653	1856556	1	667	1854353	3	1749	inorganic	incorrect	1858339	1	668	1857053	1860705	1	669	1859753	3	480	1861222	1	669	1859753	1865453	1	671	1865153	2	870	inorganic	correct	1866353	1	671	1865153	1870902	1	673	1870553	2	662	1871601	1	673	1870553	maw_22459.png	maw_Schlauchboot.png	maw_Pingpongschlaeger.png	ok
62038	07/21/2021 14:43:03	1	91	56164	1874600	1	674	1873253	1876583	1	675	1875953	2	719	organic	incorrect	1877333	1	675	1875953	1881431	1	677	1881353	2	785	1882248	1	677	1881353	1885413	1	678	1884053	2	2650	organic	incorrect	1888096	1	679	1886752	1889029	1	679	1886752	2	361	1889412	1	679	1886752	moe_23630.png	moe_Pommes.png	moe_Waschbaer.png	ok
62038	07/21/2021 14:43:24	1	92	56164	1894144	1	681	1892153	1897543	1	682	1894852	3	526	inorganic	incorrect	1898109	1	683	1897553	1901741	1	684	1900253	3	679	1902458	1	684	1900253	1906040	1	686	1905653	3	1135	inorganic	correct	1907206	1	686	1905653	1911455	1	688	1911052	4	577	1912054	1	688	1911052	fap_17119.png	fap_Knopf.png	fap_Kissen.png	ok
62038	07/21/2021 14:43:43	1	93	56164	1915353	1	689	1913753	1917169	1	690	1916453	3	705	inorganic	incorrect	1917902	1	690	1916453	1921768	1	691	1919152	2	558	1922351	1	692	1921853	1925900	1	693	1924553	2	1250	inorganic	incorrect	1927183	1	693	1924553	1930765	1	695	1929953	2	812	1931614	1	695	1929953	fal_07977.png	fal_Korb.png	fal_Buegeleisen.png	ok
62038	07/21/2021 14:44:05	1	94	56164	1934180	1	696	1932652	1937579	1	697	1935352	2	1074	inorganic	correct	1938679	1	698	1938053	1942011	1	699	1940752	2	602	1942644	1	699	1940752	1947109	1	701	1946153	2	1500	inorganic	incorrect	1948659	1	701	1946153	1952274	1	703	1951552	3	515	1952824	1	703	1951552	mat_23754.png	mat_Feuerzeug.png	mat_Helm.png	ok
62038	07/21/2021 14:44:24	1	95	56164	1956023	1	704	1954253	1958839	1	705	1956952	2	593	inorganic	correct	1959455	1	705	1956952	1963270	1	707	1962353	2	567	1963870	1	707	1962353	1967036	1	708	1965052	2	1401	inorganic	correct	1968469	1	709	1967752	1970935	1	710	1970453	3	727	1971684	1	710	1970453	fag_06551.png	fag_Portemonnaie.png	fag_Geschenk.png	ok
62038	07/21/2021 14:44:45	1	96	56164	1975000	1	711	1973152	1977649	1	712	1975852	2	716	organic	incorrect	1978399	1	712	1975852	1981931	1	714	1981252	2	549	1982514	1	714	1981252	1985913	1	715	1983952	3	1383	organic	correct	1987329	1	716	1986652	1991328	1	717	1989352	2	286	1991644	1	717	1989352	mot_69770.png	mot_Hotdog.png	mot_Bison.png	ok
