ID	DateTime	Run	Retrieval_Trial	FaceRecog_OnsetTime	FaceRecog_OnsetTimeUncertainty	FaceRecog_fMRI_Pulse	FaceRecog_fMRI_PulseTime	Assoc_Retrieval_OnsetTime	Assoc_Retrieval_OnsetTimeUncertainty	Assoc_Retrieval_fMRI_Pulse	Assoc_Retrieval_fMRI_PulseTime	Assoc_Retrieval_Pressed_Button	Assoc_Retrieval_RT	Assoc_Retrieval_Response_Category	Assoc_Retrieval_Accuracy	Assoc_Retrieval_Feedback_OnsetTime	Assoc_Retrieval_Feedback_OnsetTimeUncertainty	Assoc_Retrieval_Feedback_fMRI_Pulse	Assoc_Retrieval_Feedback_fMRI_PulseTime	Retrieval_consc_Rating_OnsetTime	Retrieval_consc_Rating_OnsetTimeUncertainty	Retrieval_consc_Rating_fMRI_Pulse	Retrieval_consc_Rating_fMRI_PulseTime	Retrieval_consc_Rating_Pressed_Button	Retrieval_consc_Rating_RT	Retrieval_consc_Rating_Feedback_OnsetTime	Retrieval_consc_Rating_Feedback_OnsetTimeUncertainty	Retrieval_consc_Rating_Feedback_fMRI_Pulse	Retrieval_consc_Rating_Feedback_fMRI_PulseTime	Presented_Person	Presented_Target	Presented_Lure	num_pulse	fifth_pulse_time	TrialStatus
62162	06/22/2021 15:35:42	1	1	1620587	1	665	1619940	1622770	1	666	1622059	2	865	inorganic	correct	1623670	1	666	1622059	1626819	1	668	1626300	2	344	1627185	1	668	1626300	faw_14215.png	faw_Kuechenmaschine.png	faw_Hufeisen.png	665	1619940	ok
62162	06/22/2021 15:35:54	1	2	1631267	1	670	1630539	1633416	1	671	1632660	3	2583	organic	correct	1636032	1	672	1634780	1638248	1	673	1636899	3	566	1638848	1	673	1636899	foc_02157.png	foc_Eule.png	foc_Brombeere.png	665	1619940	ok
62162	06/22/2021 15:36:03	1	3	1643146	1	675	1641140	1644812	1	676	1643260	2	1714	inorganic	correct	1646562	1	677	1645379	1649261	1	678	1647499	2	489	1649777	1	679	1649620	mac_59169.png	mac_Dartpfeil.png	mac_Medaille.png	665	1619940	ok
62162	06/22/2021 15:36:14	1	4	1652776	1	680	1651739	1654876	1	681	1653859	2	1360	organic	incorrect	1656259	1	682	1655980	1659274	1	683	1658100	3	350	1659657	1	683	1658100	mom_59361.png	mom_Loewe.png	mom_Ei.png	665	1619940	ok
62162	06/22/2021 15:36:26	1	5	1663106	1	685	1662339	1665122	1	686	1664460	3	1790	inorganic	incorrect	1666938	1	687	1666580	1670404	1	688	1668699	3	334	1670770	1	688	1668699	fai_07494.png	fai_Foehn.png	fai_Kommode.png	665	1619940	ok
62162	06/22/2021 15:36:36	1	6	1674902	1	690	1672940	1676685	1	691	1675059	2	654	organic	incorrect	1677368	1	692	1677179	1681567	1	694	1681420	2	361	1681950	1	694	1681420	moe_02012.png	moe_Waschbaer.png	moe_Pommes.png	665	1619940	ok
62162	06/22/2021 15:36:48	1	7	1685199	1	695	1683539	1687781	1	696	1685659	2	1800	inorganic	correct	1689614	1	697	1687780	1692163	1	699	1692019	3	419	1692613	1	699	1692019	maw_04767.png	maw_Pingpongschlaeger.png	maw_Schlauchboot.png	665	1619940	ok
62162	06/22/2021 15:36:58	1	8	1696995	1	701	1696260	1699611	1	702	1698379	2	1756	organic	incorrect	1701410	1	703	1700499	1703343	1	704	1702619	2	664	1704059	1	704	1702619	mog_03090.png	mog_Pilz.png	mog_Fledermaus.png	665	1619940	ok
62162	06/22/2021 15:37:08	1	9	1707008	1	706	1706859	1708991	1	706	1706859	2	2054	inorganic	correct	1711074	1	707	1708979	1712590	1	708	1711099	3	1148	1713773	1	709	1713219	mas_41366.png	mas_Tisch.png	mas_Bueroklammer.png	665	1619940	ok
62162	06/22/2021 15:37:18	1	10	1716938	1	710	1715339	1719054	1	711	1717459	3	1153	organic	correct	1720237	1	712	1719579	1722453	1	713	1721699	3	284	1722770	1	713	1721699	foe_08236.png	foe_Tannenzapfen.png	foe_Adler.png	665	1619940	ok
62162	06/22/2021 15:37:30	1	11	1726918	1	715	1725939	1730100	1	716	1728060	2	335	organic	incorrect	1730467	1	717	1730179	1734099	1	718	1732299	2	339	1734466	1	719	1734419	moj_11821.png	moj_Blatt.png	moj_Walnuss.png	665	1619940	ok
62162	06/22/2021 15:37:40	1	12	1739164	1	721	1738659	1741313	1	722	1740779	2	1695	organic	incorrect	1743046	1	723	1742899	1745012	1	723	1742899	2	865	1745912	1	724	1745019	foa_00207.png	foa_Marienkaefer.png	foa_Aubergine.png	665	1619940	ok
62162	06/22/2021 15:37:52	1	13	1749760	1	726	1749259	1752710	1	727	1751378	2	469	organic	incorrect	1753226	1	727	1751378	1757525	1	729	1755619	3	264	1757824	1	730	1757739	mou_01862.png	mou_Croissant.png	mou_Kraehe.png	665	1619940	ok
62162	06/22/2021 15:38:04	1	14	1761706	1	731	1759858	1764306	1	733	1764099	2	847	inorganic	correct	1765189	1	733	1764099	1768538	1	735	1768339	2	289	1768854	1	735	1768339	mao_11634.png	mao_Kegel.png	mao_Stempel.png	665	1619940	ok
62162	06/22/2021 15:38:14	1	15	1773219	1	737	1772579	1775802	1	738	1774698	2	2139	inorganic	correct	1777968	1	739	1776819	1780200	1	740	1778939	2	409	1780633	1	740	1778939	fan_17286.png	fan_Lampe.png	fan_Klavier.png	665	1619940	ok
62162	06/22/2021 15:38:25	1	16	1783699	1	742	1783178	1786282	1	743	1785299	3	720	inorganic	incorrect	1787031	1	743	1785299	1789897	1	745	1789538	3	390	1790314	1	745	1789538	fal_07906.png	fal_Korb.png	fal_Buegeleisen.png	665	1619940	ok
62162	06/22/2021 15:38:37	1	17	1794079	1	747	1793779	1796811	1	748	1795899	2	391	inorganic	correct	1797228	1	748	1795899	1801093	1	750	1800138	2	284	1801426	1	750	1800138	fap_16329.png	fap_Knopf.png	fap_Kissen.png	665	1619940	ok
62162	06/22/2021 15:38:49	1	18	1806258	1	752	1804379	1809357	1	754	1808618	3	2125	inorganic	incorrect	1811506	1	755	1810739	1813289	1	756	1812858	3	265	1813589	1	756	1812858	mai_06530.png	mai_Auto.png	mai_Gewehr.png	665	1619940	ok
62162	06/22/2021 15:39:00	1	19	1818354	1	758	1817099	1820870	1	759	1819219	2	915	inorganic	correct	1821820	1	760	1821338	1825418	1	761	1823458	2	653	1826101	1	762	1825579	mau_49693.png	mau_Leiter.png	mau_Wasserventil.png	665	1619940	ok
62162	06/22/2021 15:39:11	1	20	1829267	1	763	1827698	1831516	1	764	1829818	3	578	organic	correct	1832116	1	765	1831938	1835482	1	766	1834059	3	349	1835865	1	766	1834059	foi_03389.png	foi_Apfelkuchen.png	foi_Pflanze.png	665	1619940	ok
62162	06/22/2021 15:39:21	1	21	1840163	1	768	1838298	1842313	1	769	1840418	3	609	organic	correct	1842946	1	770	1842539	1846478	1	771	1844658	4	392	1846894	1	772	1846778	fop_00621.png	fop_Mango.png	fop_Koala.png	665	1619940	ok
62162	06/22/2021 15:39:33	1	22	1849893	1	773	1848899	1852792	1	774	1851018	3	1081	organic	correct	1853909	1	775	1853138	1857841	1	777	1857379	4	363	1858241	1	777	1857379	foj_08220.png	foj_Rose.png	foj_Waffel.png	665	1619940	ok
62162	06/22/2021 15:39:45	1	23	1862556	1	779	1861618	1865055	1	780	1863738	3	1002	inorganic	incorrect	1866088	1	781	1865858	1870370	1	783	1870098	3	275	1870670	1	783	1870098	fax_14883.png	fax_Fahrrad.png	fax_Klebeband.png	665	1619940	ok
62162	06/22/2021 15:39:55	1	24	1874119	1	784	1872218	1877401	1	786	1876458	2	323	inorganic	correct	1877751	1	786	1876458	1880800	1	788	1880698	4	354	1881183	1	788	1880698	faj_07783.png	faj_Schuh.png	faj_Parfuem.png	665	1619940	ok
62162	06/22/2021 15:40:06	1	25	1884265	1	789	1882818	1887248	1	791	1887058	2	610	inorganic	correct	1887881	1	791	1887058	1891080	1	792	1889178	3	293	1891396	1	793	1891298	maj_01545.png	maj_Computermaus.png	maj_Krawatte.png	665	1619940	ok
62162	06/22/2021 15:40:16	1	26	1895312	1	794	1893418	1897827	1	796	1897658	2	725	organic	incorrect	1898594	1	796	1897658	1902076	1	798	1901898	2	325	1902426	1	798	1901898	mos_20953.png	mos_Traube.png	mos_Eintagsfliege.png	665	1619940	ok
62162	06/22/2021 15:40:26	1	27	1905525	1	799	1904017	1908124	1	800	1906138	2	2051	inorganic	correct	1910206	1	801	1908258	1911473	1	802	1910378	2	345	1911856	1	802	1910378	map_41499.png	map_Pfeife.png	map_Globus.png	665	1619940	ok
62162	06/22/2021 15:40:38	1	28	1915121	1	804	1914618	1918370	1	805	1916738	3	630	inorganic	incorrect	1919037	1	806	1918858	1922952	1	807	1920977	2	418	1923402	1	808	1923098	fab_06018.png	fab_Kinderwagen.png	fab_Staubsauger.png	665	1619940	ok
62162	06/22/2021 15:40:47	1	29	1927501	1	810	1927337	1929250	1	810	1927337	2	2169	organic	incorrect	1931449	1	811	1929458	1932666	1	812	1931578	2	872	1933565	1	812	1931578	moh_06446.png	moh_Muecke.png	moh_Birne.png	665	1619940	ok
62162	06/22/2021 15:40:57	1	30	1936464	1	814	1935817	1938397	1	815	1937938	2	1178	organic	incorrect	1939597	1	815	1937938	1942895	1	817	1942177	3	309	1943229	1	817	1942177	mon_65798.png	mon_Fuchs.png	mon_Kartoffel.png	665	1619940	ok
62162	06/22/2021 15:41:08	1	31	1946844	1	819	1946418	1949910	1	820	1948538	3	1239	inorganic	incorrect	1951193	1	821	1950657	1953475	1	822	1952777	3	257	1953758	1	822	1952777	far_00736.png	far_Giesskanne.png	far_Heissluftballon.png	665	1619940	ok
62162	06/22/2021 15:41:19	1	32	1956924	1	823	1954898	1960423	1	825	1959137	3	298	organic	correct	1960756	1	825	1959137	1964771	1	827	1963378	2	264	1965071	1	827	1963378	mof_02408.png	mof_Spaghetti.png	mof_Hahn.png	665	1619940	ok
62162	06/22/2021 15:41:31	1	33	1968387	1	829	1967617	1971686	1	830	1969738	2	892	organic	incorrect	1972602	1	831	1971858	1975884	1	832	1973977	3	554	1976468	1	833	1976097	fot_00797.png	fot_Salat.png	fot_Taube.png	665	1619940	ok
62162	06/22/2021 15:41:42	1	34	1980616	1	835	1980337	1982815	1	836	1982458	2	1243	inorganic	correct	1984082	1	836	1982458	1987497	1	838	1986698	3	409	1987930	1	838	1986698	mal_04470.png	mal_Drucker.png	mal_Kugelschreiber.png	665	1619940	ok
62162	06/22/2021 15:41:53	1	35	1991363	1	840	1990937	1994262	1	841	1993057	3	1272	organic	correct	1995561	1	842	1995178	1997627	1	843	1997297	3	324	1997994	1	843	1997297	for_15187.png	for_Mandel.png	for_Seehund.png	665	1619940	ok
62162	06/22/2021 15:42:05	1	36	2002209	1	845	2001539	2004658	1	845	2001539	2	285	organic	incorrect	2004975	1	845	2001539	2009390	1	847	2007897	2	696	2010123	1	848	2010018	fov_15046.png	fov_Fisch.png	fov_Zucchini.png	665	1619940	ok
62162	06/22/2021 15:42:16	1	37	2013855	1	849	2012137	2016887	1	851	2016377	2	316	inorganic	correct	2017237	1	851	2016377	2020653	1	853	2020617	4	562	2021252	1	853	2020617	fac_02146.png	fac_Haarbuerste.png	fac_Ohrring.png	665	1619940	ok
62162	06/22/2021 15:42:29	1	38	2025751	1	855	2024857	2028200	1	856	2026977	2	409	organic	incorrect	2028633	1	856	2026977	2033498	1	859	2033337	2	356	2033882	1	859	2033337	mol_07679.png	mol_Pizza.png	mol_Schimpanse.png	665	1619940	ok
62162	06/22/2021 15:42:41	1	39	2038213	1	861	2037577	2040563	1	862	2039697	2	358	organic	incorrect	2040946	1	862	2039697	2045828	1	864	2043937	2	404	2046277	1	865	2046057	mot_69374.png	mot_Hotdog.png	mot_Bison.png	665	1619940	ok
62162	06/22/2021 15:42:54	1	40	2050726	1	867	2050297	2054008	1	868	2052417	2	1091	organic	incorrect	2055124	1	869	2054537	2058057	1	870	2056657	2	674	2058756	1	870	2056657	foq_16799.png	foq_Pinguin.png	foq_Fenchel.png	665	1619940	ok
62162	06/22/2021 15:43:04	1	41	2063122	1	873	2063017	2065054	1	873	2063017	3	1752	inorganic	incorrect	2066837	1	874	2065137	2069436	1	876	2069377	3	360	2069819	1	876	2069377	mat_23275.png	mat_Helm.png	mat_Feuerzeug.png	665	1619940	ok
62162	06/22/2021 15:43:14	1	42	2073135	1	877	2071497	2074884	1	878	2073617	2	2462	organic	incorrect	2077384	1	879	2075738	2079250	1	880	2077857	3	343	2079616	1	880	2077857	fou_17118.png	fou_Schmetterling.png	fou_Feige.png	665	1619940	ok
62162	06/22/2021 15:43:25	1	43	2082898	1	882	2082098	2085031	1	883	2084218	3	936	inorganic	incorrect	2085997	1	883	2084218	2090113	1	885	2088457	4	502	2090646	1	886	2090578	mak_00987.png	mak_Socken.png	mak_Rucksack.png	665	1619940	ok
62162	06/22/2021 15:43:36	1	44	2093961	1	887	2092698	2096211	1	888	2094817	2	1321	inorganic	correct	2097577	1	889	2096937	2100842	1	890	2099058	2	1620	2102492	1	891	2101178	mae_01010.png	mae_Schach.png	mae_Taschenrechner.png	665	1619940	ok
62162	06/22/2021 15:43:49	1	45	2105541	1	893	2105417	2108473	1	894	2107538	3	310	organic	correct	2108806	1	894	2107538	2113338	1	896	2111777	2	394	2113755	1	896	2111777	fok_09378.png	fok_Kaenguruh.png	fok_Palme.png	665	1619940	ok
62162	06/22/2021 15:44:00	1	46	2118603	1	899	2118137	2121269	1	900	2120257	3	309	inorganic	incorrect	2121602	1	900	2120257	2125067	1	902	2124498	3	294	2125384	1	902	2124498	fag_06539.png	fag_Portemonnaie.png	fag_Geschenk.png	665	1619940	ok
62162	06/22/2021 15:44:11	1	47	2129483	1	904	2128737	2132415	1	905	2130858	3	296	inorganic	incorrect	2132748	1	905	2130858	2135847	1	907	2135097	2	353	2136230	1	907	2135097	fat_12032.png	fat_Einkaufswagen.png	fat_Kleiderbuegel.png	665	1619940	ok
62162	06/22/2021 15:44:22	1	48	2140029	1	909	2139338	2143495	1	910	2141457	2	498	organic	incorrect	2144028	1	911	2143577	2146943	1	912	2145697	2	362	2147343	1	912	2145697	mob_00760.png	mob_Kiwi.png	mob_Igel.png	665	1619940	ok
62162	06/22/2021 15:44:33	1	49	2151509	1	914	2149937	2153558	1	915	2152057	3	354	inorganic	incorrect	2153941	1	915	2152057	2157523	1	917	2156297	3	231	2157790	1	917	2156297	faw_14685.png	faw_Hufeisen.png	faw_Kuechenmaschine.png	665	1619940	ok
62162	06/22/2021 15:44:43	1	50	2162072	1	919	2160537	2164571	1	920	2162658	2	968	inorganic	correct	2165571	1	921	2164777	2168753	1	922	2166897	3	454	2169236	1	923	2169017	mac_59752.png	mac_Medaille.png	mac_Dartpfeil.png	665	1619940	ok
62162	06/22/2021 15:44:54	1	51	2172202	1	924	2171137	2173801	1	925	2173257	2	1632	organic	incorrect	2175467	1	926	2175377	2178566	1	927	2177497	3	367	2178966	1	927	2177497	foc_02664.png	foc_Brombeere.png	foc_Eule.png	665	1619940	ok
62162	06/22/2021 15:45:06	1	52	2183031	1	929	2181737	2185297	1	930	2183857	2	1102	organic	incorrect	2186430	1	931	2185977	2190112	1	932	2188097	2	365	2190512	1	933	2190217	mom_59641.png	mom_Ei.png	mom_Loewe.png	665	1619940	ok
62162	06/22/2021 15:45:17	1	53	2195227	1	935	2194457	2197676	1	936	2196577	2	664	inorganic	correct	2198376	1	936	2196577	2202508	1	938	2200817	2	563	2203108	1	939	2202937	fai_07637.png	fai_Kommode.png	fai_Foehn.png	665	1619940	ok
62162	06/22/2021 15:45:29	1	54	2206224	1	940	2205057	2209522	1	942	2209297	2	1220	organic	incorrect	2210772	1	942	2209297	2213038	1	943	2211417	2	333	2213404	1	943	2211417	moe_23630.png	moe_Pommes.png	moe_Waschbaer.png	665	1619940	ok
62162	06/22/2021 15:45:42	1	55	2217886	1	946	2217776	2221019	1	947	2219897	2	682	organic	incorrect	2221735	1	947	2219897	2225817	1	949	2224137	3	394	2226233	1	949	2224137	mog_03277.png	mog_Fledermaus.png	mog_Pilz.png	665	1619940	ok
62162	06/22/2021 15:45:52	1	56	2230915	1	952	2230497	2234247	1	953	2232616	2	341	inorganic	correct	2234614	1	953	2232616	2237680	1	955	2236857	2	630	2238346	1	955	2236857	maw_22459.png	maw_Schlauchboot.png	maw_Pingpongschlaeger.png	665	1619940	ok
62162	06/22/2021 15:46:04	1	57	2241495	1	957	2241096	2244361	1	958	2243217	3	303	organic	correct	2244711	1	958	2243217	2249409	1	960	2247457	2	413	2249859	1	961	2249576	foa_00426.png	foa_Aubergine.png	foa_Marienkaefer.png	665	1619940	ok
62162	06/22/2021 15:46:14	1	58	2253358	1	962	2251697	2255724	1	963	2253817	3	698	organic	correct	2256457	1	964	2255936	2260339	1	966	2260177	3	294	2260655	1	966	2260177	foe_08514.png	foe_Adler.png	foe_Tannenzapfen.png	665	1619940	ok
62162	06/22/2021 15:46:25	1	59	2263671	1	967	2262297	2266553	1	968	2264416	2	1073	inorganic	correct	2267653	1	969	2266536	2270452	1	970	2268657	2	586	2271068	1	971	2270776	mas_41937.png	mas_Bueroklammer.png	mas_Tisch.png	665	1619940	ok
62162	06/22/2021 15:46:36	1	60	2274251	1	972	2272896	2276816	1	973	2275017	2	1948	organic	incorrect	2278799	1	974	2277137	2281382	1	975	2279256	3	526	2281931	1	976	2281376	moj_11860.png	moj_Walnuss.png	moj_Blatt.png	665	1619940	ok
62162	06/22/2021 15:46:48	1	61	2285180	1	977	2283497	2287346	1	978	2285616	2	1210	inorganic	correct	2288579	1	979	2287736	2292161	1	981	2291977	2	349	2292561	1	981	2291977	mao_19000.png	mao_Stempel.png	mao_Kegel.png	665	1619940	ok
62162	06/22/2021 15:46:59	1	62	2297509	1	983	2296216	2299192	1	984	2298336	3	413	inorganic	incorrect	2299642	1	984	2298336	2303941	1	986	2302576	3	655	2304624	1	986	2302576	fan_18894.png	fan_Klavier.png	fan_Lampe.png	665	1619940	ok
62162	06/22/2021 15:47:07	1	63	2307889	1	988	2306816	2310622	1	989	2308936	0	0	organic	miss	2310622	1	989	2308936	2312871	1	990	2311056	2	424	2313321	1	991	2313176	mou_06524.png	mou_Kraehe.png	mou_Croissant.png	665	1619940	ok
62162	06/22/2021 15:47:19	1	64	2316503	1	992	2315297	2319335	1	993	2317416	2	570	inorganic	correct	2319935	1	994	2319536	2324017	1	996	2323777	2	337	2324384	1	996	2323777	fal_07977.png	fal_Buegeleisen.png	fal_Korb.png	665	1619940	ok
62162	06/22/2021 15:47:31	1	65	2328432	1	998	2328016	2330515	1	999	2330136	3	333	organic	correct	2330882	1	999	2330136	2335547	1	1001	2334376	2	431	2336013	1	1001	2334376	foi_05187.png	foi_Pflanze.png	foi_Apfelkuchen.png	665	1619940	ok
62162	06/22/2021 15:47:40	1	66	2340195	1	1003	2338616	2341895	1	1004	2340736	3	2719	inorganic	incorrect	2344660	1	1005	2342856	2345343	1	1006	2344976	2	806	2346193	1	1006	2344976	fap_17119.png	fap_Kissen.png	fap_Knopf.png	665	1619940	ok
62162	06/22/2021 15:47:51	1	67	2349025	1	1007	2347096	2351491	1	1009	2351336	3	687	inorganic	incorrect	2352208	1	1009	2351336	2356323	1	1011	2355576	2	350	2356706	1	1011	2355576	mau_58144.png	mau_Wasserventil.png	mau_Leiter.png	665	1619940	ok
62162	06/22/2021 15:48:00	1	68	2360738	1	1013	2359816	2362471	1	1014	2361935	2	408	inorganic	correct	2362904	1	1014	2361935	2365820	1	1015	2364056	2	637	2366486	1	1016	2366176	mai_23761.png	mai_Gewehr.png	mai_Auto.png	665	1619940	ok
62162	06/22/2021 15:48:12	1	69	2369569	1	1017	2368296	2372134	1	1018	2370415	2	1851	organic	incorrect	2374017	1	1019	2372536	2376966	1	1021	2376776	3	472	2377466	1	1021	2376776	foj_08937.png	foj_Waffel.png	foj_Rose.png	665	1619940	ok
62162	06/22/2021 15:48:23	1	70	2381781	1	1023	2381016	2383431	1	1024	2383136	3	615	organic	correct	2384080	1	1024	2383136	2387213	1	1025	2385255	3	498	2387746	1	1026	2387375	fop_07937.png	fop_Koala.png	fop_Mango.png	665	1619940	ok
62162	06/22/2021 15:48:33	1	71	2392444	1	1028	2391616	2394727	1	1029	2393735	2	914	inorganic	correct	2395693	1	1029	2393735	2398392	1	1031	2397976	2	682	2399109	1	1031	2397976	faj_07849.png	faj_Parfuem.png	faj_Schuh.png	665	1619940	ok
62162	06/22/2021 15:48:44	1	72	2402741	1	1033	2402215	2404607	1	1034	2404336	3	2612	inorganic	incorrect	2407256	1	1035	2406456	2408622	1	1036	2408575	3	671	2409322	1	1036	2408575	fax_15310.png	fax_Klebeband.png	fax_Fahrrad.png	665	1619940	ok
62162	06/22/2021 15:48:55	1	73	2413770	1	1038	2412816	2415686	1	1039	2414936	2	421	inorganic	correct	2416136	1	1039	2414936	2420085	1	1041	2419175	2	812	2420918	1	1041	2419175	fab_06286.png	fab_Staubsauger.png	fab_Kinderwagen.png	665	1619940	ok
62162	06/22/2021 15:49:07	1	74	2424533	1	1043	2423415	2428016	1	1045	2427656	3	628	organic	correct	2428665	1	1045	2427656	2432097	1	1047	2431895	3	373	2432497	1	1047	2431895	mos_23223.png	mos_Eintagsfliege.png	mos_Traube.png	665	1619940	ok
62162	06/22/2021 15:49:18	1	75	2436529	1	1049	2436136	2438479	1	1050	2438256	3	422	inorganic	incorrect	2438929	1	1050	2438256	2443494	1	1052	2442495	2	1383	2444926	1	1053	2444616	map_49576.png	map_Globus.png	map_Pfeife.png	665	1619940	ok
62162	06/22/2021 15:49:29	1	76	2447426	1	1054	2446735	2449308	1	1055	2448855	3	282	inorganic	incorrect	2449625	1	1055	2448855	2454357	1	1057	2453096	2	485	2454873	1	1057	2453096	maj_01546.png	maj_Krawatte.png	maj_Computermaus.png	665	1619940	ok
62162	06/22/2021 15:49:40	1	77	2458055	1	1059	2457335	2460804	1	1060	2459455	2	341	inorganic	correct	2461171	1	1060	2459455	2465803	1	1062	2463695	4	350	2466186	1	1063	2465815	far_06518.png	far_Heissluftballon.png	far_Giesskanne.png	665	1619940	ok
62162	06/22/2021 15:49:50	1	78	2469302	1	1064	2467935	2472117	1	1065	2470055	3	743	organic	correct	2472884	1	1066	2472175	2475450	1	1067	2474295	2	641	2476116	1	1067	2474295	mof_06901.png	mof_Hahn.png	mof_Spaghetti.png	665	1619940	ok
62162	06/22/2021 15:49:59	1	79	2478932	1	1069	2478535	2481481	1	1070	2480655	2	722	organic	incorrect	2482231	1	1070	2480655	2485330	1	1072	2484895	2	599	2485963	1	1072	2484895	mon_69587.png	mon_Kartoffel.png	mon_Fuchs.png	665	1619940	ok
62162	06/22/2021 15:50:13	1	80	2488728	1	1073	2487015	2492244	1	1075	2491255	3	480	organic	correct	2492777	1	1075	2491255	2496992	1	1077	2495495	4	266	2497292	1	1077	2495495	moh_07125.png	moh_Birne.png	moh_Muecke.png	665	1619940	ok
62162	06/22/2021 15:50:25	1	81	2502224	1	1080	2501855	2505456	1	1081	2503975	2	522	organic	incorrect	2506006	1	1081	2503975	2509438	1	1083	2508215	2	787	2510255	1	1083	2508215	fov_15193.png	fov_Zucchini.png	fov_Fisch.png	665	1619940	ok
62162	06/22/2021 15:50:36	1	82	2514137	1	1085	2512455	2517235	1	1087	2516695	3	1242	organic	correct	2518502	1	1087	2516695	2520984	1	1089	2520935	4	468	2521484	1	1089	2520935	fot_06092.png	fot_Taube.png	fot_Salat.png	665	1619940	ok
62162	06/22/2021 15:50:47	1	83	2525100	1	1090	2523054	2527315	1	1091	2525175	3	826	organic	correct	2528165	1	1092	2527295	2531997	1	1094	2531534	3	382	2532414	1	1094	2531534	for_15880.png	for_Seehund.png	for_Mandel.png	665	1619940	ok
62162	06/22/2021 15:50:59	1	84	2536379	1	1096	2535775	2539711	1	1097	2537894	2	270	inorganic	correct	2540028	1	1097	2537894	2543693	1	1099	2542135	2	316	2544043	1	1099	2542135	mal_20552.png	mal_Kugelschreiber.png	mal_Drucker.png	665	1619940	ok
62162	06/22/2021 15:51:11	1	85	2548208	1	1101	2546374	2551507	1	1103	2550615	3	605	organic	correct	2552140	1	1103	2550615	2555922	1	1105	2554854	4	427	2556372	1	1105	2554854	mol_11363.png	mol_Schimpanse.png	mol_Pizza.png	665	1619940	ok
62162	06/22/2021 15:51:23	1	86	2559971	1	1107	2559095	2562770	1	1108	2561214	3	382	organic	correct	2563187	1	1108	2561214	2567269	1	1110	2565455	3	444	2567735	1	1111	2567575	foq_17341.png	foq_Fenchel.png	foq_Pinguin.png	665	1619940	ok
62162	06/22/2021 15:51:33	1	87	2572067	1	1113	2571814	2573883	1	1113	2571814	2	501	organic	incorrect	2574416	1	1114	2573935	2577782	1	1115	2576054	2	494	2578298	1	1116	2578174	mot_69770.png	mot_Bison.png	mot_Hotdog.png	665	1619940	ok
62162	06/22/2021 15:51:44	1	88	2582797	1	1118	2582415	2585862	1	1119	2584534	3	1712	inorganic	incorrect	2587612	1	1120	2586654	2589461	1	1121	2588775	2	328	2589828	1	1121	2588775	fac_02970.png	fac_Ohrring.png	fac_Haarbuerste.png	665	1619940	ok
62162	06/22/2021 15:51:55	1	89	2593660	1	1123	2593014	2595709	1	1124	2595134	3	514	organic	correct	2596259	1	1124	2595134	2600774	1	1126	2599374	2	760	2601557	1	1127	2601494	fou_18966.png	fou_Feige.png	fou_Schmetterling.png	665	1619940	ok
62162	06/22/2021 15:52:05	1	90	2604739	1	1128	2603614	2606539	1	1129	2605735	2	1192	inorganic	correct	2607755	1	1129	2605735	2610004	1	1131	2609974	2	1228	2611271	1	1131	2609974	mae_36426.png	mae_Taschenrechner.png	mae_Schach.png	665	1619940	ok
62162	06/22/2021 15:52:18	1	91	2614386	1	1133	2614214	2617618	1	1134	2616334	2	663	inorganic	correct	2618318	1	1134	2616334	2622967	1	1137	2622694	4	328	2623316	1	1137	2622694	mak_03979.png	mak_Rucksack.png	mak_Socken.png	665	1619940	ok
62162	06/22/2021 15:52:29	1	92	2627132	1	1139	2626934	2630381	1	1140	2629055	2	314	inorganic	correct	2630731	1	1140	2629055	2634063	1	1142	2633294	3	481	2634579	1	1142	2633294	mat_23754.png	mat_Feuerzeug.png	mat_Helm.png	665	1619940	ok
62162	06/22/2021 15:52:40	1	93	2638195	1	1144	2637534	2640211	1	1145	2639654	3	876	organic	correct	2641127	1	1145	2639654	2644943	1	1147	2643894	2	407	2645376	1	1147	2643894	fok_09860.png	fok_Palme.png	fok_Kaenguruh.png	665	1619940	ok
62162	06/22/2021 15:52:51	1	94	2649708	1	1149	2648134	2652390	1	1150	2650254	2	796	inorganic	correct	2653223	1	1151	2652373	2657222	1	1153	2656614	2	327	2657572	1	1153	2656614	fat_14140.png	fat_Kleiderbuegel.png	fat_Einkaufswagen.png	665	1619940	ok
62162	06/22/2021 15:53:01	1	95	2660854	1	1154	2658734	2663186	1	1156	2662974	3	857	inorganic	incorrect	2664069	1	1156	2662974	2666535	1	1157	2665094	3	1334	2667901	1	1158	2667214	fag_06551.png	fag_Geschenk.png	fag_Portemonnaie.png	665	1619940	ok
62162	06/22/2021 15:53:13	1	96	2670051	1	1159	2669334	2673083	1	1160	2671454	2	323	organic	incorrect	2673433	1	1160	2671454	2676882	1	1162	2675693	2	383	2677298	1	1162	2675693	mob_22833.png	mob_Igel.png	mob_Kiwi.png	665	1619940	ok
