ID	DateTime	Run	Delayed_Retrieval_Trial	First_Pulse_Time	FaceRecog_OnsetTime	FaceRecog_OnsetTimeUncertainty	FaceRecog_fMRI_Pulse	FaceRecog_fMRI_PulseTime	Assoc_Retrieval_OnsetTime	Assoc_Retrieval_OnsetTimeUncertainty	Assoc_Retrieval_fMRI_Pulse	Assoc_Retrieval_fMRI_PulseTime	Assoc_Retrieval_Pressed_Button	Assoc_Retrieval_RT	Assoc_Retrieval_Response_Category	Assoc_Retrieval_Accuracy	Assoc_Retrieval_Feedback_OnsetTime	Assoc_Retrieval_Feedback_OnsetTimeUncertainty	Assoc_Retrieval_Feedback_fMRI_Pulse	Assoc_Retrieval_Feedback_fMRI_PulseTime	Retrieval_consc_Rating_OnsetTime	Retrieval_consc_Rating_OnsetTimeUncertainty	Retrieval_consc_Rating_fMRI_Pulse	Retrieval_consc_Rating_fMRI_PulseTime	Retrieval_consc_Rating_Pressed_Button	Retrieval_consc_Rating_RT	Retrieval_consc_Rating_Feedback_OnsetTime	Retrieval_consc_Rating_Feedback_OnsetTimeUncertainty	Retrieval_consc_Rating_Feedback_fMRI_Pulse	Retrieval_consc_Rating_Feedback_fMRI_PulseTime	ForcedChoice_OnsetTime	ForcedChoice_OnsetTimeUncertainty	ForcedChoice_fMRI_Pulse	ForcedChoice_fMRI_PulseTime	ForcedChoice_Pressed_Button	ForcedChoice_RT	ForcedChoice_Response_Category	ForcedChoice_Accuracy	ForcedChoice_Feedback_OnsetTime	ForcedChoice_Feedback_OnsetTimeUncertainty	ForcedChoice_Feedback_fMRI_Pulse	ForcedChoice_Feedback_fMRI_PulseTime	Recognition_consc_Rating_OnsetTime	Recognition_consc_Rating_OnsetTimeUncertainty	Recognition_consc_Rating_fMRI_Pulse	Recognition_consc_Rating_fMRI_PulseTime	Recognition_consc_Rating_Pressed_Button	Recognition_consc_Rating_RT	Recognition_consc_Rating_Feedback_OnsetTime	Recognition_consc_Rating_Feedback_OnsetTimeUncertainty	Recognition_consc_Rating_Feedback_fMRI_Pulse	Recognition_consc_Rating_Feedback_fMRI_PulseTime	Presented_Person	Presented_Target	Presented_Lure	TrialStatus
62162	06/23/2021 14:18:48	1	1	130742	141668	1	6	141342	143351	1	6	141342	0	0	organic	miss	143351	1	8	145581	148233	1	9	147702	2	445	148699	1	9	147702	151798	1	10	149821	2	1942	organic	correct	153764	1	11	151941	155630	1	12	154062	4	1621	157280	1	13	156182	foc_02157.png	foc_Eule.png	foc_Brombeere.png	ok
62162	06/23/2021 14:19:05	1	2	130742	160445	1	14	158301	162212	1	15	160421	2	399	organic	incorrect	162645	1	16	162542	166027	1	17	164661	2	264	166327	1	17	164661	170026	1	19	168901	2	930	organic	correct	170992	1	19	168901	174357	1	21	173141	4	1028	175440	1	22	175261	mom_59361.png	mom_Loewe.png	mom_Ei.png	ok
62162	06/23/2021 14:19:25	1	3	130742	178140	1	23	177381	180855	1	24	179502	3	1510	inorganic	incorrect	182388	1	25	181621	185887	1	26	183741	2	474	186387	1	27	185861	189269	1	28	187981	3	1660	inorganic	correct	190952	1	29	190101	193034	1	30	192221	4	1037	194101	1	30	192221	faw_14215.png	faw_Kuechenmaschine.png	faw_Hufeisen.png	ok
62162	06/23/2021 14:19:45	1	4	130742	198199	1	32	196461	201098	1	34	200701	2	642	inorganic	correct	201765	1	34	200701	205247	1	36	204941	2	290	205564	1	36	204941	209329	1	38	209181	2	1594	inorganic	correct	210945	1	38	209181	213294	1	39	211301	3	392	213711	1	40	213421	mac_59169.png	mac_Dartpfeil.png	mac_Medaille.png	ok
62162	06/23/2021 14:20:04	1	5	130742	217276	1	41	215541	219875	1	43	219781	3	1187	inorganic	incorrect	221108	1	43	219781	224807	1	45	224021	2	287	225140	1	45	224021	228989	1	47	228261	2	1611	inorganic	correct	230622	1	48	230381	232571	1	49	232501	4	740	233338	1	49	232501	fai_07494.png	fai_Foehn.png	fai_Kommode.png	ok
62162	06/23/2021 14:20:25	1	6	130742	237020	1	51	236741	240002	1	52	238861	2	1034	inorganic	correct	241068	1	53	240980	244051	1	54	243101	2	254	244334	1	54	243101	249299	1	56	247341	2	1638	inorganic	correct	250965	1	57	249460	254114	1	59	253701	3	332	254480	1	59	253701	maw_04767.png	maw_Pingpongschlaeger.png	maw_Schlauchboot.png	ok
62162	06/23/2021 14:20:46	1	7	130742	257563	1	60	255821	260678	1	62	260062	3	414	organic	correct	261128	1	62	260062	265877	1	64	264300	3	894	266793	1	65	266422	270275	1	66	268542	2	1407	organic	correct	271725	1	67	270661	274307	1	68	272781	3	403	274757	1	68	272781	mog_03090.png	mog_Pilz.png	mog_Fledermaus.png	ok
62162	06/23/2021 14:21:05	1	8	130742	279139	1	70	277022	282438	1	72	281261	3	732	organic	correct	283204	1	72	281261	286203	1	74	285502	2	419	286653	1	74	285502	290702	1	76	289741	3	1279	organic	correct	292001	1	77	291862	294617	1	78	293982	4	358	295000	1	78	293982	moe_02012.png	moe_Waschbaer.png	moe_Pommes.png	ok
62162	06/23/2021 14:21:24	1	9	130742	298016	1	79	296101	300332	1	80	298221	2	305	organic	incorrect	300665	1	81	300342	305180	1	83	304581	2	246	305463	1	83	304581	308829	1	84	306702	2	1767	organic	incorrect	310628	1	85	308822	312961	1	86	310941	2	1151	314144	1	87	313061	moj_11821.png	moj_Blatt.png	moj_Walnuss.png	ok
62162	06/23/2021 14:21:43	1	10	130742	317126	1	88	315182	319359	1	89	317302	3	735	organic	correct	320142	1	90	319421	323224	1	91	321541	2	280	323557	1	91	321541	328289	1	94	327901	3	1955	organic	correct	330272	1	95	330021	332304	1	96	332142	3	384	332721	1	96	332142	foe_08236.png	foe_Tannenzapfen.png	foe_Adler.png	ok
62162	06/23/2021 14:22:01	1	11	130742	335753	1	97	334261	337936	1	98	336381	2	400	organic	incorrect	338369	1	98	336381	341951	1	100	340621	2	388	342368	1	100	340621	345533	1	102	344861	2	2450	organic	correct	348016	1	103	346981	350048	1	104	349101	2	327	350398	1	104	349101	foa_00207.png	foa_Marienkaefer.png	foa_Aubergine.png	ok
62162	06/23/2021 14:22:20	1	12	130742	353830	1	106	353341	356413	1	107	355462	2	950	inorganic	correct	357396	1	107	355462	360695	1	109	359701	2	633	361361	1	109	359701	364893	1	111	363941	2	1935	inorganic	miss	366859	1	112	366061	369492	2	113	368181	3	293	369825	1	113	368181	mas_41366.png	mas_Tisch.png	mas_Bueroklammer.png	ok
62162	06/23/2021 14:22:40	1	13	130742	373241	1	115	372421	375573	1	116	374541	3	260	inorganic	incorrect	375856	1	116	374541	379488	1	118	378780	3	470	379988	1	118	378780	383021	1	119	380901	2	1147	inorganic	incorrect	384203	1	120	383021	387802	1	122	387261	2	297	388135	1	122	387261	mao_11634.png	mao_Kegel.png	mao_Stempel.png	ok
62162	06/23/2021 14:22:59	1	14	130742	392334	1	124	391501	394483	1	125	393621	2	1553	organic	incorrect	396066	1	126	395741	399048	1	127	397861	2	296	399382	1	127	397861	403847	1	129	402100	2	1702	organic	incorrect	405580	1	130	404221	407879	1	131	406341	3	297	408212	1	131	406341	mou_01862.png	mou_Croissant.png	mou_Kraehe.png	ok
62162	06/23/2021 14:23:20	1	15	130742	411444	1	133	410580	414010	1	134	412701	2	372	inorganic	correct	414410	1	134	412701	419042	1	136	416940	3	337	419425	1	137	419060	422641	1	138	421181	3	1461	inorganic	miss	424140	1	139	423301	427539	1	140	425420	3	362	427939	1	141	427540	fan_17286.png	fan_Lampe.png	fan_Klavier.png	ok
62162	06/23/2021 14:23:41	1	16	130742	432321	1	143	431781	435586	1	144	433900	3	279	inorganic	incorrect	435903	1	144	433900	440501	1	147	440260	3	304	440834	1	147	440260	444517	1	148	442380	2	1313	inorganic	correct	445849	1	149	444501	449948	1	151	448740	3	453	450431	1	151	448740	fal_07906.png	fal_Korb.png	fal_Buegeleisen.png	ok
62162	06/23/2021 14:24:01	1	17	130742	453997	1	153	452981	456929	1	154	455100	2	1273	organic	incorrect	458229	1	155	457220	461028	1	156	459340	2	716	461777	1	157	461461	465576	1	158	463580	2	2742	organic	correct	468358	1	160	467821	469791	1	160	467821	2	253	470091	1	161	469941	foi_03389.png	foi_Apfelkuchen.png	foi_Pflanze.png	ok
62162	06/23/2021 14:24:21	1	18	130742	473457	1	162	472060	476422	1	164	476301	2	335	inorganic	correct	476789	1	164	476301	480638	1	166	480540	2	327	480988	1	166	480540	484486	1	167	482660	2	1391	inorganic	correct	485903	1	168	484781	489351	1	170	489020	3	379	489768	1	170	489020	mau_49693.png	mau_Leiter.png	mau_Wasserventil.png	ok
62162	06/23/2021 14:24:40	1	19	130742	494183	1	172	493260	496116	1	173	495380	3	1384	inorganic	incorrect	497532	1	174	497500	500514	1	175	499620	2	254	500798	1	175	499620	504596	1	177	503860	3	2076	inorganic	correct	506696	1	178	505980	508895	1	179	508101	4	301	509228	1	179	508101	mai_06530.png	mai_Auto.png	mai_Gewehr.png	ok
62162	06/23/2021 14:24:59	1	20	130742	513060	1	181	512340	515459	1	182	514460	3	353	inorganic	incorrect	515843	1	182	514460	519991	1	184	518700	2	456	520491	1	184	518700	523906	1	186	522940	2	2181	inorganic	correct	526122	1	187	525060	528038	1	188	527180	2	340	528405	1	188	527180	fap_16329.png	fap_Knopf.png	fap_Kissen.png	ok
62162	06/23/2021 14:25:20	1	21	130742	532070	1	190	531420	534070	1	191	533540	3	976	organic	correct	535069	1	191	533540	539118	1	193	537780	3	307	539451	1	193	537780	544450	1	196	544140	3	1191	organic	correct	545666	1	196	544140	548648	1	198	548380	4	419	549098	1	198	548380	foj_08220.png	foj_Rose.png	foj_Waffel.png	ok
62162	06/23/2021 14:25:42	1	22	130742	553113	1	200	552620	556262	1	201	554739	3	571	organic	correct	556862	1	201	554739	560344	1	203	558980	4	288	560661	1	203	558980	565626	1	206	565340	2	554	organic	correct	566226	1	206	565340	569441	1	207	567460	3	1527	571007	1	208	569580	fop_00621.png	fop_Mango.png	fop_Koala.png	ok
62162	06/23/2021 14:26:03	1	23	130742	574339	1	210	573820	577738	1	211	575940	2	415	inorganic	correct	578188	1	212	578059	582653	1	214	582300	4	265	582953	1	214	582300	587202	1	216	586539	2	610	inorganic	correct	587835	1	216	586539	592017	1	218	590780	4	352	592400	1	218	590780	faj_07783.png	faj_Schuh.png	faj_Parfuem.png	ok
62162	06/23/2021 14:26:24	1	24	130742	595449	1	220	595019	597348	1	221	597140	3	1471	inorganic	incorrect	598848	1	221	597140	601714	1	223	601379	2	301	602047	1	223	601379	606629	1	225	605620	3	1478	inorganic	correct	608128	1	226	607740	611894	1	227	609859	2	253	612177	1	228	611979	fax_14883.png	fax_Fahrrad.png	fax_Klebeband.png	ok
62162	06/23/2021 14:26:43	1	25	130742	617075	1	230	616219	619058	1	231	618339	2	1222	organic	incorrect	620324	1	231	618339	622523	1	232	620459	2	472	623023	1	233	622580	626838	1	234	624699	2	1929	organic	correct	628788	1	235	626819	630737	1	236	628940	2	1105	631870	1	237	631059	mos_20953.png	mos_Traube.png	mos_Eintagsfliege.png	ok
62162	06/23/2021 14:27:02	1	26	130742	635502	1	239	635299	637602	1	240	637420	3	255	inorganic	incorrect	637885	1	240	637420	642167	1	242	641659	2	294	642483	1	242	641659	646432	1	244	645900	3	1789	inorganic	incorrect	648248	1	245	648019	651197	1	246	650139	2	664	651897	1	246	650139	fab_06018.png	fab_Kinderwagen.png	fab_Staubsauger.png	ok
62162	06/23/2021 14:27:22	1	27	130742	655096	1	248	654379	656778	1	249	656499	2	1484	inorganic	correct	658295	1	249	656499	660311	1	250	658619	3	548	660894	1	251	660739	665525	1	253	664979	3	1124	inorganic	miss	666692	1	253	664979	670191	1	255	669219	3	948	671190	1	255	669219	maj_01545.png	maj_Computermaus.png	maj_Krawatte.png	ok
62162	06/23/2021 14:27:42	1	28	130742	674472	1	257	673459	676588	1	258	675579	2	439	inorganic	correct	677055	1	258	675579	680904	1	260	679819	2	430	681370	1	260	679819	686019	1	262	684059	3	1684	inorganic	correct	687735	1	263	686179	689867	1	264	688299	2	412	690317	1	264	688299	map_41499.png	map_Pfeife.png	map_Globus.png	ok
62162	06/23/2021 14:28:02	1	29	130742	694832	1	267	694659	697398	1	268	696779	3	707	organic	correct	698131	1	268	696779	701163	1	270	701019	3	481	701680	1	270	701019	704846	1	271	703139	2	2028	organic	miss	706895	1	272	705259	710227	1	274	709499	3	322	710577	1	274	709499	moh_06446.png	moh_Muecke.png	moh_Birne.png	ok
62162	06/23/2021 14:28:23	1	30	130742	714426	1	276	713739	717058	1	277	715858	2	269	organic	incorrect	717375	1	277	715858	721557	1	279	720099	3	428	722006	1	279	720099	726538	1	282	726459	3	1546	organic	correct	728121	1	282	726459	732086	1	284	730698	2	308	732420	1	284	730698	mof_02408.png	mof_Spaghetti.png	mof_Hahn.png	ok
62162	06/23/2021 14:28:44	1	31	130742	736168	1	286	734939	739384	1	288	739178	2	2135	organic	incorrect	741550	1	289	741299	743499	1	290	743419	2	970	744499	1	290	743419	748198	1	292	747658	3	2331	organic	correct	750563	1	293	749779	751996	1	294	751899	2	721	752746	1	294	751899	mon_65798.png	mon_Fuchs.png	mon_Kartoffel.png	ok
62162	06/23/2021 14:29:05	1	32	130742	756711	1	296	756138	759610	1	297	758259	3	353	inorganic	incorrect	759994	1	297	758259	764042	1	299	762498	2	230	764326	1	299	762498	768674	1	301	766739	3	1332	inorganic	correct	770040	1	302	768858	774106	1	304	773098	4	424	774555	1	304	773098	far_00736.png	far_Giesskanne.png	far_Heissluftballon.png	ok
62162	06/23/2021 14:29:25	1	33	130742	778021	1	306	777338	781553	1	307	779458	2	348	organic	incorrect	781936	1	308	781579	785852	1	310	785818	3	550	786435	1	310	785818	790533	1	312	790059	3	2485	organic	correct	793049	1	313	792178	794749	1	314	794298	3	542	795315	1	314	794298	for_15187.png	for_Mandel.png	for_Seehund.png	ok
62162	06/23/2021 14:29:46	1	34	130742	798164	1	315	796418	801413	1	317	800658	2	263	inorganic	correct	801713	1	317	800658	805845	1	319	804898	2	373	806245	1	319	804898	810460	1	321	809138	2	1771	inorganic	miss	812259	1	322	811258	814309	1	323	813378	2	996	815358	1	323	813378	mal_04470.png	mal_Drucker.png	mal_Kugelschreiber.png	ok
62162	06/23/2021 14:30:06	1	35	130742	818507	1	325	817618	821140	1	326	819738	3	298	organic	correct	821473	1	326	819738	826155	1	329	826098	2	211	826388	1	329	826098	830986	1	331	830338	2	2400	organic	miss	833419	1	332	832458	834635	1	333	834578	2	804	835468	1	333	834578	fov_15046.png	fov_Fisch.png	fov_Zucchini.png	ok
62162	06/23/2021 14:30:26	1	36	130742	839167	1	335	838818	842699	1	336	840938	2	769	organic	incorrect	843499	1	337	843058	846798	1	338	845177	2	358	847181	1	338	845177	851030	1	340	849418	2	1118	organic	correct	852179	1	341	851538	855611	1	342	853657	4	309	855945	1	343	855778	fot_00797.png	fot_Salat.png	fot_Taube.png	ok
62162	06/23/2021 14:30:47	1	37	130742	858977	1	344	857898	861493	1	345	860018	2	505	organic	incorrect	862043	1	345	860018	866524	1	348	866378	2	367	866941	1	348	866378	869940	1	349	868497	2	2058	organic	correct	872023	1	350	870618	874988	1	352	874858	4	600	875621	1	352	874858	mot_69374.png	mot_Hotdog.png	mot_Bison.png	ok
62162	06/23/2021 14:31:07	1	38	130742	879503	1	354	879098	882286	1	355	881218	3	1649	organic	correct	883969	1	356	883337	885968	1	357	885457	2	706	886701	1	357	885457	890000	1	359	889698	3	2401	organic	correct	892432	1	360	891818	894648	1	361	893937	3	308	894982	1	361	893937	foq_16799.png	foq_Pinguin.png	foq_Fenchel.png	ok
62162	06/23/2021 14:31:26	1	39	130742	899747	1	363	898178	901779	1	364	900297	2	443	organic	incorrect	902246	1	364	900297	906228	1	366	904538	2	306	906561	1	366	904538	909610	1	368	908778	3	2709	organic	correct	912359	1	369	910898	914758	1	370	913018	3	540	915341	1	371	915137	mol_07679.png	mol_Pizza.png	mol_Schimpanse.png	ok
62162	06/23/2021 14:31:48	1	40	130742	918874	1	372	917257	921972	1	374	921498	2	345	inorganic	correct	922356	1	374	921498	926671	1	376	925737	4	340	927037	1	376	925737	930770	1	378	929977	3	1434	inorganic	correct	932236	1	379	932097	936201	1	380	934217	4	306	936534	1	381	936338	fac_02146.png	fac_Haarbuerste.png	fac_Ohrring.png	ok
62162	06/23/2021 14:32:06	1	41	130742	941166	1	383	940577	943415	1	384	942697	3	1153	inorganic	incorrect	944598	1	384	942697	947097	1	386	946937	3	328	947447	1	386	946937	950846	1	387	949057	2	1934	inorganic	correct	952812	1	388	951178	954478	1	389	953298	3	612	955128	1	389	953298	mae_01010.png	mae_Schach.png	mae_Taschenrechner.png	ok
62162	06/23/2021 14:32:27	1	42	130742	958577	1	391	957537	960893	1	392	959658	3	841	inorganic	incorrect	961776	1	392	959658	965191	1	394	963897	3	289	965524	1	394	963897	970273	1	396	968137	2	1972	inorganic	correct	972272	1	397	970258	975005	1	399	974497	4	278	975305	1	399	974497	mak_00987.png	mak_Socken.png	mak_Rucksack.png	ok
62162	06/23/2021 14:32:48	1	43	130742	979237	1	401	978738	981652	1	402	980858	3	679	organic	correct	982369	1	402	980858	985918	1	404	985098	2	248	986201	1	404	985098	991232	1	406	989338	3	1710	organic	correct	992965	1	407	991458	996631	1	409	995698	4	307	996964	1	409	995698	fou_17118.png	fou_Schmetterling.png	fou_Feige.png	ok
62162	06/23/2021 14:33:10	1	44	130742	1001079	1	411	999938	1003795	1	412	1002058	2	1747	inorganic	correct	1005578	1	413	1004178	1007794	1	414	1006297	2	283	1008110	1	414	1006297	1012759	1	417	1012658	2	1863	inorganic	miss	1014658	1	417	1012658	1017724	1	419	1016898	3	336	1018090	1	419	1016898	mat_23275.png	mat_Helm.png	mat_Feuerzeug.png	ok
62162	06/23/2021 14:33:27	1	45	130742	1022555	1	421	1021137	1025738	1	423	1025378	3	359	inorganic	incorrect	1026121	1	423	1025378	1029086	1	424	1027498	3	355	1029470	1	424	1027498	1032535	1	426	1031738	2	1940	inorganic	correct	1034501	1	427	1033858	1036501	1	428	1035978	3	293	1036817	1	428	1035978	fat_12032.png	fat_Einkaufswagen.png	fat_Kleiderbuegel.png	ok
62162	06/23/2021 14:33:48	1	46	130742	1039966	1	429	1038097	1042115	1	430	1040218	2	696	organic	incorrect	1042848	1	431	1042338	1046497	1	432	1044457	2	319	1046847	1	433	1046577	1051596	1	435	1050818	3	2324	organic	correct	1053945	1	436	1052937	1056077	1	437	1055057	3	275	1056377	1	437	1055057	mob_00760.png	mob_Kiwi.png	mob_Igel.png	ok
62162	06/23/2021 14:34:08	1	47	130742	1060493	1	439	1059297	1064008	1	441	1063538	2	1850	inorganic	correct	1065907	1	442	1065658	1068273	1	443	1067777	2	353	1068656	1	443	1067777	1073222	1	445	1072018	3	1656	inorganic	correct	1074904	1	446	1074137	1077337	1	447	1076257	2	354	1077720	1	447	1076257	fag_06539.png	fag_Portemonnaie.png	fag_Geschenk.png	ok
62162	06/23/2021 14:34:29	1	48	130742	1080852	1	449	1080498	1084334	1	450	1082617	3	520	organic	correct	1084884	1	451	1084737	1088167	1	452	1086857	2	323	1088516	1	452	1086857	1091999	1	454	1091097	3	2147	organic	miss	1094181	1	455	1093217	1097513	1	457	1097457	3	380	1097930	1	457	1097457	fok_09378.png	fok_Kaenguruh.png	fok_Palme.png	ok
62162	06/23/2021 14:34:46	1	49	130742	1102112	1	459	1101697	1103845	1	459	1101697	2	1399	inorganic	correct	1105277	1	460	1103818	1107560	1	461	1105937	2	487	1108076	1	461	1105937	1111259	1	463	1110177	3	2432	inorganic	correct	1113741	1	464	1112298	1115241	1	465	1114417	2	901	1116174	1	465	1114417	mac_59752.png	mac_Medaille.png	mac_Dartpfeil.png	ok
62162	06/23/2021 14:35:05	1	50	130742	1118923	1	467	1118657	1120856	1	468	1120777	2	900	organic	incorrect	1121789	1	468	1120777	1124304	1	469	1122897	2	568	1124904	1	469	1122897	1128770	1	471	1127137	3	1077	organic	correct	1129869	1	472	1129257	1134001	1	474	1133497	4	321	1134351	1	474	1133497	mom_59641.png	mom_Ei.png	mom_Loewe.png	ok
62162	06/23/2021 14:35:26	1	51	130742	1137717	1	475	1135616	1140782	1	477	1139857	3	485	inorganic	incorrect	1141299	1	477	1139857	1144648	1	479	1144097	2	391	1145064	1	479	1144097	1148679	1	481	1148337	3	2591	inorganic	incorrect	1151295	1	482	1150457	1154111	1	483	1152577	2	352	1154494	1	483	1152577	faw_14685.png	faw_Hufeisen.png	faw_Kuechenmaschine.png	ok
62162	06/23/2021 14:35:46	1	52	130742	1158859	1	485	1156817	1161642	1	487	1161057	3	373	organic	correct	1162058	1	487	1161057	1166507	1	489	1165297	2	291	1166823	1	489	1165297	1170189	1	491	1169537	2	1718	organic	miss	1171938	1	492	1171657	1174288	1	493	1173776	2	696	1175021	1	493	1173776	foc_02664.png	foc_Brombeere.png	foc_Eule.png	ok
62162	06/23/2021 14:36:07	1	53	130742	1178786	1	495	1178017	1180519	1	496	1180137	3	1387	organic	correct	1181935	1	496	1180137	1185417	1	498	1184377	2	308	1185750	1	498	1184377	1188849	1	500	1188617	3	1878	organic	correct	1190749	1	500	1188617	1194281	1	502	1192857	3	332	1194647	1	502	1192857	moe_23630.png	moe_Pommes.png	moe_Waschbaer.png	ok
62162	06/23/2021 14:36:28	1	54	130742	1199246	1	504	1197096	1202478	1	506	1201337	2	262	inorganic	correct	1202778	1	506	1201337	1207143	1	508	1205576	2	594	1207776	1	509	1207696	1211375	1	510	1209817	2	2056	inorganic	correct	1213474	1	511	1211937	1216457	1	513	1216176	3	527	1217006	1	513	1216176	fai_07637.png	fai_Kommode.png	fai_Foehn.png	ok
62162	06/23/2021 14:36:49	1	55	130742	1221155	1	515	1220416	1223904	1	516	1222536	2	336	organic	incorrect	1224271	1	516	1222536	1227520	1	518	1226777	3	337	1227886	1	518	1226777	1231868	1	520	1231016	2	1974	organic	correct	1233867	1	521	1233137	1237133	1	522	1235256	2	335	1237500	1	523	1237376	mog_03277.png	mog_Fledermaus.png	mog_Pilz.png	ok
62162	06/23/2021 14:37:09	1	56	130742	1241282	1	524	1239496	1243064	1	525	1241617	3	1877	inorganic	incorrect	1244964	1	526	1243736	1247929	1	527	1245856	2	367	1248329	1	528	1247976	1251612	1	529	1250097	2	2590	inorganic	correct	1254227	1	530	1252216	1257143	1	532	1256456	3	264	1257460	1	532	1256456	maw_22459.png	maw_Schlauchboot.png	maw_Pingpongschlaeger.png	ok
62162	06/23/2021 14:37:30	1	57	130742	1261308	1	534	1260696	1263907	1	535	1262816	2	1943	organic	incorrect	1265873	1	536	1264937	1268356	1	537	1267056	2	544	1268922	1	537	1267056	1272305	1	539	1271296	2	2057	organic	correct	1274387	1	540	1273416	1277436	1	541	1275536	3	356	1277819	1	542	1277656	moj_11860.png	moj_Walnuss.png	moj_Blatt.png	ok
62162	06/23/2021 14:37:51	1	58	130742	1282601	1	544	1281896	1285983	1	545	1284016	2	446	organic	incorrect	1286466	1	546	1286136	1291265	1	548	1290376	2	528	1291815	1	548	1290376	1295680	1	550	1294616	3	2324	organic	correct	1298029	1	551	1296735	1300212	1	552	1298856	3	1130	1301378	1	553	1300976	foa_00426.png	foa_Aubergine.png	foa_Marienkaefer.png	ok
62162	06/23/2021 14:38:11	1	59	130742	1303711	1	554	1303096	1306626	1	555	1305216	2	945	organic	incorrect	1307609	1	556	1307336	1310375	1	557	1309456	2	527	1310942	1	557	1309456	1315557	1	559	1313696	3	1584	organic	correct	1317173	1	560	1315816	1319572	1	561	1317936	3	295	1319889	1	561	1317936	foe_08514.png	foe_Adler.png	foe_Tannenzapfen.png	ok
62162	06/23/2021 14:38:32	1	60	130742	1323804	1	563	1322176	1325737	1	564	1324296	2	1225	inorganic	correct	1326986	1	565	1326416	1330668	1	566	1328535	2	564	1331268	1	567	1330656	1335600	1	569	1334895	3	2515	inorganic	miss	1338149	1	570	1337015	1340515	1	571	1339136	3	1090	1341631	1	572	1341256	mas_41937.png	mas_Bueroklammer.png	mas_Tisch.png	ok
62162	06/23/2021 14:38:52	1	61	130742	1344430	1	573	1343375	1346463	1	574	1345496	3	339	inorganic	incorrect	1346829	1	574	1345496	1350345	1	576	1349735	2	1037	1351411	1	576	1349735	1355060	1	578	1353976	2	2290	inorganic	incorrect	1357393	1	579	1356096	1360675	1	581	1360335	3	419	1361141	1	581	1360335	mao_19000.png	mao_Stempel.png	mao_Kegel.png	ok
62162	06/23/2021 14:39:10	1	62	130742	1364890	1	583	1364576	1366573	1	583	1364576	3	2301	organic	correct	1368905	1	585	1368815	1370505	1	585	1368815	2	551	1371088	1	586	1370936	1374104	1	587	1373055	2	1484	organic	miss	1375620	1	588	1375175	1378852	1	589	1377295	3	269	1379152	1	589	1377295	mou_06524.png	mou_Kraehe.png	mou_Croissant.png	ok
62162	06/23/2021 14:39:33	1	63	130742	1383151	1	591	1381535	1386683	1	593	1385776	2	260	inorganic	correct	1386966	1	593	1385776	1391948	1	595	1390015	2	391	1392364	1	596	1392135	1396929	1	598	1396375	2	2108	inorganic	miss	1399062	1	599	1398495	1400661	1	600	1400615	3	1115	1401811	1	600	1400615	fan_18894.png	fan_Klavier.png	fan_Lampe.png	ok
62162	06/23/2021 14:39:54	1	64	130742	1405943	1	602	1404855	1408892	1	603	1406975	2	1703	inorganic	correct	1410641	1	604	1409095	1413857	1	606	1413335	2	349	1414240	1	606	1413335	1418489	1	608	1417575	3	2362	inorganic	correct	1420871	1	609	1419695	1423120	1	610	1421815	2	318	1423470	1	610	1421815	fal_07977.png	fal_Buegeleisen.png	fal_Korb.png	ok
62162	06/23/2021 14:40:11	1	65	130742	1426536	1	612	1426055	1428385	1	613	1428175	3	320	inorganic	incorrect	1428735	1	613	1428175	1432017	1	614	1430295	3	240	1432284	1	614	1430295	1435716	1	616	1434535	2	2276	inorganic	correct	1438015	1	617	1436655	1439565	1	618	1438775	3	540	1440131	1	618	1438775	fap_17119.png	fap_Kissen.png	fap_Knopf.png	ok
62162	06/23/2021 14:40:32	1	66	130742	1444013	1	620	1443015	1446329	1	621	1445135	2	475	inorganic	correct	1446829	1	621	1445135	1451411	1	623	1449374	2	479	1451927	1	624	1451495	1456176	1	626	1455735	2	1927	inorganic	correct	1458142	1	627	1457855	1461641	1	628	1459975	3	213	1461891	1	628	1459975	mau_58144.png	mau_Wasserventil.png	mau_Leiter.png	ok
62162	06/23/2021 14:40:52	1	67	130742	1465056	1	630	1464214	1467072	1	631	1466335	2	423	inorganic	correct	1467522	1	631	1466335	1471354	1	633	1470575	2	709	1472087	1	633	1470575	1474836	1	635	1474815	2	1160	inorganic	correct	1476019	1	635	1474815	1479785	1	637	1479055	4	306	1480118	1	637	1479055	mai_23761.png	mai_Gewehr.png	mai_Auto.png	ok
62162	06/23/2021 14:41:12	1	68	130742	1485066	1	639	1483295	1487266	1	640	1485415	3	1245	organic	correct	1488548	1	641	1487534	1491331	1	642	1489654	2	757	1492114	1	643	1491775	1495329	1	644	1493895	3	2102	organic	correct	1497462	1	645	1496014	1500678	1	647	1500255	2	402	1501111	1	647	1500255	foi_05187.png	foi_Pflanze.png	foi_Apfelkuchen.png	ok
62162	06/23/2021 14:41:34	1	69	130742	1504826	1	649	1504494	1506992	1	650	1506615	3	278	inorganic	incorrect	1507309	1	650	1506615	1511141	1	652	1510854	2	274	1511441	1	652	1510854	1515906	1	654	1515095	2	1342	inorganic	correct	1517272	1	655	1517215	1521437	1	656	1519334	4	301	1521771	1	657	1521454	faj_07849.png	faj_Parfuem.png	faj_Schuh.png	ok
62162	06/23/2021 14:41:52	1	70	130742	1526569	1	659	1525694	1529485	1	660	1527814	2	755	organic	incorrect	1530268	1	661	1529934	1532817	1	662	1532055	2	448	1533300	1	662	1532055	1536732	1	664	1536294	2	974	organic	correct	1537732	1	664	1536294	1540797	1	666	1540535	4	300	1541131	1	666	1540535	foj_08937.png	foj_Waffel.png	foj_Rose.png	ok
62162	06/23/2021 14:42:11	1	71	130742	1544813	1	668	1544774	1547762	1	669	1546895	2	618	inorganic	correct	1548412	1	669	1546895	1552060	1	671	1551134	2	818	1552927	1	671	1551134	1556259	1	673	1555375	3	1381	inorganic	correct	1557692	1	674	1557494	1560291	1	675	1559614	3	279	1560607	1	675	1559614	fax_15310.png	fax_Klebeband.png	fax_Fahrrad.png	ok
62162	06/23/2021 14:42:28	1	72	130742	1564040	1	677	1563854	1566372	1	678	1565974	3	1331	organic	correct	1567738	1	678	1565974	1569988	1	679	1568094	2	295	1570321	1	680	1570214	1573586	1	681	1572334	3	1785	organic	correct	1575403	1	682	1574454	1577285	1	683	1576574	4	559	1577868	1	683	1576574	fop_07937.png	fop_Koala.png	fop_Mango.png	ok
62162	06/23/2021 14:42:47	1	73	130742	1581167	1	685	1580814	1583966	1	686	1582934	2	646	organic	incorrect	1584649	1	686	1582934	1587465	1	688	1587174	2	505	1587998	1	688	1587174	1590931	1	689	1589294	2	1533	organic	correct	1592497	1	690	1591414	1595462	1	691	1593534	3	600	1596096	1	692	1595654	mos_23223.png	mos_Eintagsfliege.png	mos_Traube.png	ok
62162	06/23/2021 14:43:08	1	74	130742	1599728	1	693	1597774	1602410	1	695	1602013	2	744	inorganic	correct	1603193	1	695	1602013	1607542	1	697	1606254	2	680	1608275	1	697	1606254	1611790	1	699	1610493	2	1889	inorganic	miss	1613706	1	700	1612614	1615522	1	701	1614734	2	295	1615839	1	701	1614734	maj_01546.png	maj_Krawatte.png	maj_Computermaus.png	ok
62162	06/23/2021 14:43:28	1	75	130742	1620587	1	703	1618974	1622170	1	704	1621094	3	270	inorganic	incorrect	1622470	1	704	1621094	1626385	1	706	1625333	3	460	1626869	1	706	1625333	1630634	1	708	1629574	2	2194	inorganic	incorrect	1632850	1	709	1631694	1636182	1	711	1635935	2	437	1636649	1	711	1635935	fab_06286.png	fab_Staubsauger.png	fab_Kinderwagen.png	ok
62162	06/23/2021 14:43:47	1	76	130742	1641097	1	713	1640174	1642913	1	714	1642294	3	242	inorganic	incorrect	1643180	1	714	1642294	1646845	1	716	1646534	3	394	1647262	1	716	1646534	1650494	1	717	1648653	2	1923	inorganic	correct	1652460	1	718	1650774	1654726	1	719	1652894	4	274	1655042	1	719	1652894	map_49576.png	map_Globus.png	map_Pfeife.png	ok
62162	06/23/2021 14:44:06	1	77	130742	1659608	1	722	1659254	1661923	1	723	1661375	3	2034	organic	correct	1663989	1	724	1663493	1667138	1	725	1665613	2	332	1667505	1	725	1665613	1670870	1	727	1669855	3	1915	organic	correct	1672820	1	728	1671974	1675052	1	729	1674094	2	259	1675336	1	729	1674094	mof_06901.png	mof_Hahn.png	mof_Spaghetti.png	ok
62162	06/23/2021 14:44:25	1	78	130742	1678451	1	731	1678334	1680301	1	731	1678334	2	353	inorganic	correct	1680684	1	732	1680454	1684033	1	733	1682574	3	890	1684949	1	734	1684695	1688914	1	735	1686814	2	645	inorganic	correct	1689581	1	736	1688934	1693929	1	738	1693175	4	312	1694263	1	738	1693175	far_06518.png	far_Heissluftballon.png	far_Giesskanne.png	ok
62162	06/23/2021 14:44:43	1	79	130742	1697911	1	740	1697414	1700044	1	741	1699535	3	637	organic	correct	1700744	1	741	1699535	1704476	1	743	1703774	3	510	1705026	1	743	1703774	1708808	1	745	1708015	3	1940	organic	correct	1710774	1	746	1710134	1712640	1	747	1712254	4	989	1713656	1	747	1712254	moh_07125.png	moh_Birne.png	moh_Muecke.png	ok
62162	06/23/2021 14:45:02	1	80	130742	1716172	1	748	1714374	1718421	1	749	1716494	2	1080	organic	incorrect	1719537	1	750	1718614	1722720	1	751	1720734	2	303	1723053	1	752	1722854	1726368	1	753	1724974	3	2544	organic	correct	1728934	1	754	1727094	1731067	1	755	1729214	2	538	1731633	1	756	1731334	mon_69587.png	mon_Kartoffel.png	mon_Fuchs.png	ok
62162	06/23/2021 14:45:22	1	81	130742	1734582	1	757	1733454	1736215	1	758	1735574	2	592	inorganic	correct	1736832	1	758	1735574	1741130	1	760	1739814	2	478	1741647	1	760	1739814	1744762	1	762	1744054	3	1523	inorganic	miss	1746312	1	763	1746174	1749910	1	764	1748294	2	443	1750394	1	764	1748294	mal_20552.png	mal_Kugelschreiber.png	mal_Drucker.png	ok
62162	06/23/2021 14:45:44	1	82	130742	1754892	1	767	1754653	1758108	1	768	1756774	2	359	organic	incorrect	1758491	1	768	1756774	1761557	1	770	1761014	3	239	1761823	1	770	1761014	1765605	1	772	1765254	3	1666	organic	correct	1767305	1	772	1765254	1771120	1	774	1769494	4	321	1771470	1	774	1769494	fot_06092.png	fot_Taube.png	fot_Salat.png	ok
62162	06/23/2021 14:46:04	1	83	130742	1776252	1	777	1775854	1779750	1	778	1777973	2	301	organic	incorrect	1780084	1	778	1777973	1783632	1	780	1782214	2	736	1784399	1	781	1784334	1788631	1	783	1788574	3	1485	organic	incorrect	1790147	1	783	1788574	1792346	1	784	1790694	3	318	1792696	1	784	1790694	fov_15193.png	fov_Zucchini.png	fov_Fisch.png	ok
62162	06/23/2021 14:46:25	1	84	130742	1797145	1	787	1797054	1799094	1	787	1797054	3	317	organic	correct	1799460	1	788	1799174	1803076	1	789	1801293	2	230	1803359	1	789	1801293	1808391	1	792	1807654	2	1330	organic	correct	1809757	1	792	1807654	1813156	1	794	1811894	4	291	1813472	1	794	1811894	for_15880.png	for_Seehund.png	for_Mandel.png	ok
62162	06/23/2021 14:46:46	1	85	130742	1817971	1	796	1816133	1821070	1	798	1820374	3	375	organic	correct	1821470	1	798	1820374	1824902	1	800	1824613	4	764	1825702	1	800	1824613	1828551	1	801	1826733	2	493	organic	correct	1829067	1	802	1828854	1833082	1	803	1830974	4	258	1833366	1	804	1833093	mol_11363.png	mol_Schimpanse.png	mol_Pizza.png	ok
62162	06/23/2021 14:47:06	1	86	130742	1838347	1	806	1837334	1841463	1	807	1839453	2	304	organic	incorrect	1841796	1	808	1841573	1845278	1	809	1843693	2	406	1845712	1	809	1843693	1850143	1	812	1850053	2	2537	organic	correct	1852726	1	813	1852174	1854808	1	814	1854293	2	289	1855125	1	814	1854293	foq_17341.png	foq_Fenchel.png	foq_Pinguin.png	ok
62162	06/23/2021 14:47:26	1	87	130742	1858690	1	816	1858533	1860973	1	817	1860654	2	1514	organic	incorrect	1862523	1	817	1860654	1865771	1	819	1864893	2	1274	1867071	1	820	1867013	1870153	1	821	1869134	3	2271	organic	correct	1872453	1	822	1871253	1875385	1	823	1873373	2	306	1875718	1	824	1875493	mot_69770.png	mot_Bison.png	mot_Hotdog.png	ok
62162	06/23/2021 14:47:49	1	88	130742	1879084	1	825	1877613	1881216	1	826	1879733	2	264	inorganic	correct	1881516	1	826	1879733	1885965	1	828	1883973	2	276	1886265	1	829	1886093	1890380	1	831	1890333	2	1279	inorganic	correct	1891679	1	831	1890333	1895961	1	833	1894573	4	326	1896311	1	833	1894573	fac_02970.png	fac_Ohrring.png	fac_Haarbuerste.png	ok
62162	06/23/2021 14:48:07	1	89	130742	1901259	1	836	1900933	1903176	1	837	1903053	2	849	inorganic	correct	1904075	1	837	1903053	1907224	1	838	1905173	3	347	1907607	1	839	1907293	1911889	1	841	1911533	3	1135	inorganic	correct	1913056	1	841	1911533	1915938	1	843	1915772	4	385	1916354	1	843	1915772	mak_03979.png	mak_Rucksack.png	mak_Socken.png	ok
62162	06/23/2021 14:48:27	1	90	130742	1919537	1	844	1917893	1921903	1	845	1920013	3	1402	inorganic	incorrect	1923335	1	846	1922133	1925585	1	847	1924252	2	306	1925918	1	847	1924252	1930766	1	850	1930612	3	2015	inorganic	correct	1932816	1	851	1932733	1935181	1	852	1934853	3	421	1935631	1	852	1934853	mae_36426.png	mae_Taschenrechner.png	mae_Schach.png	ok
62162	06/23/2021 14:48:49	1	91	130742	1939730	1	854	1939092	1942929	1	855	1941213	3	255	organic	correct	1943212	1	855	1941213	1947327	1	857	1945453	3	461	1947827	1	858	1947572	1952176	1	860	1951813	2	1272	organic	correct	1953492	1	860	1951813	1956874	1	862	1956052	4	296	1957207	1	862	1956052	fou_18966.png	fou_Feige.png	fou_Schmetterling.png	ok
62162	06/23/2021 14:49:10	1	92	130742	1961739	1	864	1960293	1963788	1	865	1962412	2	1022	inorganic	correct	1964838	1	866	1964532	1969103	1	868	1968772	2	308	1969437	1	868	1968772	1972935	1	869	1970892	3	1423	inorganic	miss	1974385	1	870	1973013	1977484	1	872	1977252	3	322	1977834	1	872	1977252	mat_23754.png	mat_Feuerzeug.png	mat_Helm.png	ok
62162	06/23/2021 14:49:31	1	93	130742	1982515	1	874	1981493	1985798	1	876	1985732	3	1122	organic	correct	1986947	1	876	1985732	1989546	1	877	1987852	2	721	1990296	1	878	1989973	1993945	1	879	1992092	3	1423	organic	miss	1995394	1	880	1994212	1999410	1	882	1998453	3	532	1999993	1	882	1998453	fok_09860.png	fok_Palme.png	fok_Kaenguruh.png	ok
62162	06/23/2021 14:49:51	1	94	130742	2003442	1	884	2002692	2006024	1	885	2004812	2	924	inorganic	correct	2006974	1	886	2006932	2011139	1	887	2009052	3	252	2011422	1	888	2011172	2016104	1	890	2015412	2	1168	inorganic	correct	2017304	1	890	2015412	2020503	1	892	2019652	3	278	2020803	1	892	2019652	fat_14140.png	fat_Kleiderbuegel.png	fat_Einkaufswagen.png	ok
62162	06/23/2021 14:50:11	1	95	130742	2023952	1	894	2023892	2026534	1	895	2026012	3	747	inorganic	incorrect	2027317	1	895	2026012	2030416	1	897	2030252	3	359	2030799	1	897	2030252	2034815	1	899	2034492	3	2248	inorganic	correct	2037097	1	900	2036612	2038930	1	901	2038732	3	318	2039280	1	901	2038732	fag_06551.png	fag_Geschenk.png	fag_Portemonnaie.png	ok
62162	06/23/2021 14:50:32	1	96	130742	2043312	1	903	2042972	2046077	1	904	2045092	3	800	organic	correct	2046927	1	904	2045092	2049660	1	906	2049332	2	1009	2050709	1	906	2049332	2054075	1	908	2053572	2	1895	organic	correct	2055991	1	909	2055692	2059156	1	910	2057812	3	238	2059423	1	910	2057812	mob_22833.png	mob_Igel.png	mob_Kiwi.png	ok
