ID	DateTime	Run	Delayed_Retrieval_Trial	First_Pulse_Time	FaceRecog_OnsetTime	FaceRecog_OnsetTimeUncertainty	FaceRecog_fMRI_Pulse	FaceRecog_fMRI_PulseTime	Assoc_Retrieval_OnsetTime	Assoc_Retrieval_OnsetTimeUncertainty	Assoc_Retrieval_fMRI_Pulse	Assoc_Retrieval_fMRI_PulseTime	Assoc_Retrieval_Pressed_Button	Assoc_Retrieval_RT	Assoc_Retrieval_Response_Category	Assoc_Retrieval_Accuracy	Assoc_Retrieval_Feedback_OnsetTime	Assoc_Retrieval_Feedback_OnsetTimeUncertainty	Assoc_Retrieval_Feedback_fMRI_Pulse	Assoc_Retrieval_Feedback_fMRI_PulseTime	Retrieval_consc_Rating_OnsetTime	Retrieval_consc_Rating_OnsetTimeUncertainty	Retrieval_consc_Rating_fMRI_Pulse	Retrieval_consc_Rating_fMRI_PulseTime	Retrieval_consc_Rating_Pressed_Button	Retrieval_consc_Rating_RT	Retrieval_consc_Rating_Feedback_OnsetTime	Retrieval_consc_Rating_Feedback_OnsetTimeUncertainty	Retrieval_consc_Rating_Feedback_fMRI_Pulse	Retrieval_consc_Rating_Feedback_fMRI_PulseTime	ForcedChoice_OnsetTime	ForcedChoice_OnsetTimeUncertainty	ForcedChoice_fMRI_Pulse	ForcedChoice_fMRI_PulseTime	ForcedChoice_Pressed_Button	ForcedChoice_RT	ForcedChoice_Response_Category	ForcedChoice_Accuracy	ForcedChoice_Feedback_OnsetTime	ForcedChoice_Feedback_OnsetTimeUncertainty	ForcedChoice_Feedback_fMRI_Pulse	ForcedChoice_Feedback_fMRI_PulseTime	Recognition_consc_Rating_OnsetTime	Recognition_consc_Rating_OnsetTimeUncertainty	Recognition_consc_Rating_fMRI_Pulse	Recognition_consc_Rating_fMRI_PulseTime	Recognition_consc_Rating_Pressed_Button	Recognition_consc_Rating_RT	Recognition_consc_Rating_Feedback_OnsetTime	Recognition_consc_Rating_Feedback_OnsetTimeUncertainty	Recognition_consc_Rating_Feedback_fMRI_Pulse	Recognition_consc_Rating_Feedback_fMRI_PulseTime	Presented_Person	Presented_Target	Presented_Lure	TrialStatus
62426	08/18/2021 16:10:23	1	1	52794	65960	1	5	63593	67993	1	6	66293	3	1777	inorganic	incorrect	69793	1	7	68993	72158	1	8	71693	3	762	72941	1	8	71693	76224	1	9	74393	2	2559	inorganic	incorrect	78823	1	10	77093	80522	1	11	79793	2	1626	82172	1	11	79793	fat_12032.png	fat_Einkaufswagen.png	fat_Kleiderbuegel.png	ok
62426	08/18/2021 16:10:43	1	2	52794	84937	1	12	82493	87253	1	13	85193	3	2013	organic	correct	89303	1	14	87893	91735	1	15	90593	2	807	92568	1	15	90593	95084	1	16	93293	0	0	organic	miss	95084	1	17	95993	100432	1	18	98693	2	1324	101782	1	19	101393	mob_00760.png	mob_Igel.png	mob_Kiwi.png	ok
62426	08/18/2021 16:11:04	1	3	52794	104714	1	20	104093	107963	1	21	106793	2	389	organic	incorrect	108379	1	21	106793	112511	1	23	112193	2	807	113344	1	23	112193	116210	1	24	114893	3	1598	organic	correct	117843	1	25	117593	120892	1	26	120293	2	1359	122275	1	26	120293	foc_02157.png	foc_Eule.png	foc_Brombeere.png	ok
62426	08/18/2021 16:11:23	1	4	52794	125557	1	27	122993	127156	1	28	125693	2	2209	inorganic	correct	129389	1	29	128393	132138	1	30	131093	3	1588	133754	1	30	131093	136687	1	32	136493	3	1657	inorganic	correct	138369	1	32	136493	140319	1	33	139193	3	1793	142135	1	34	141893	mai_06530.png	mai_Gewehr.png	mai_Auto.png	ok
62426	08/18/2021 16:11:44	1	5	52794	144850	1	35	144593	146883	1	35	144593	3	1162	organic	correct	148083	1	36	147293	151148	1	37	149993	2	938	152115	1	37	149993	156347	1	39	155393	3	1757	organic	correct	158129	1	40	158093	160962	1	41	160793	3	1304	162295	1	41	160793	fov_15046.png	fov_Zucchini.png	fov_Fisch.png	ok
62426	08/18/2021 16:12:02	1	6	52794	165510	1	42	163493	168009	1	43	166193	3	530	organic	correct	168576	1	43	166193	172308	1	45	171593	4	1281	173641	1	45	171593	175723	1	46	174293	2	639	organic	correct	176406	1	46	174293	180255	1	48	179693	4	253	180538	1	48	179693	moe_02012.png	moe_Pommes.png	moe_Waschbaer.png	ok
62426	08/18/2021 16:12:20	1	7	52794	183654	1	49	182392	185453	1	50	185092	2	2085	organic	incorrect	187569	1	50	185092	189402	1	51	187792	2	953	190385	1	51	187792	192818	1	52	190492	3	1870	organic	correct	194717	1	53	193192	197116	1	54	195892	4	682	197832	1	54	195892	mom_59361.png	mom_Ei.png	mom_Loewe.png	ok
62426	08/18/2021 16:12:40	1	8	52794	201814	1	56	201292	204347	1	57	203992	3	1066	inorganic	incorrect	205447	1	57	203992	208812	1	58	206692	2	917	209762	1	59	209392	213944	1	60	212092	2	1683	inorganic	correct	215660	1	61	214792	217559	1	62	217492	2	383	217976	1	62	217492	mac_59169.png	mac_Dartpfeil.png	mac_Medaille.png	ok
62426	08/18/2021 16:13:02	1	9	52794	222208	1	63	220192	225090	1	64	222892	3	756	organic	correct	225890	1	65	225592	230072	1	66	228292	2	730	230838	1	66	228292	233654	1	67	230992	2	2240	organic	correct	235920	1	68	233692	238819	1	69	236392	4	287	239135	1	70	239092	mos_20953.png	mos_Eintagsfliege.png	mos_Traube.png	ok
62426	08/18/2021 16:13:23	1	10	52794	244050	1	71	241792	247066	1	72	244492	2	288	inorganic	correct	247382	1	73	247192	251131	1	74	249892	4	510	251664	1	74	249892	255413	1	76	255292	2	476	inorganic	correct	255913	1	76	255292	260711	1	77	257992	3	527	261261	1	78	260692	fax_14883.png	fax_Fahrrad.png	fax_Klebeband.png	ok
62426	08/18/2021 16:13:42	1	11	52794	264960	1	79	263392	266626	1	80	266092	2	1861	inorganic	correct	268509	1	80	266092	270974	1	81	268792	3	799	271807	1	82	271492	275190	1	83	274193	3	1592	inorganic	correct	276822	1	83	274193	279105	1	84	276892	2	1816	280954	1	85	279593	fan_17286.png	fan_Klavier.png	fan_Lampe.png	ok
62426	08/18/2021 16:14:04	1	12	52794	284203	1	86	282293	286536	1	87	284992	3	967	inorganic	incorrect	287535	1	87	284992	290984	1	89	290392	2	934	291951	1	89	290392	296083	1	91	295793	2	1591	inorganic	correct	297699	1	91	295793	301014	1	92	298492	4	522	301564	1	93	301193	fai_07494.png	fai_Kommode.png	fai_Foehn.png	ok
62426	08/18/2021 16:14:24	1	13	52794	306129	1	94	303892	308162	1	95	306592	3	1763	organic	correct	309961	1	96	309292	312160	1	97	311992	2	221	312410	1	97	311992	316809	1	98	314692	3	1523	organic	incorrect	318358	1	99	317392	322157	1	100	320092	3	1172	323373	1	101	322792	foe_08236.png	foe_Adler.png	foe_Tannenzapfen.png	ok
62426	08/18/2021 16:14:44	1	14	52794	325773	1	102	325492	328788	1	103	328192	2	362	inorganic	correct	329171	1	103	328192	333220	1	104	330892	4	875	334120	1	105	333592	337219	1	106	336292	3	898	inorganic	correct	338152	1	106	336292	341800	1	108	341692	4	469	342300	1	108	341692	maj_01545.png	maj_Computermaus.png	maj_Krawatte.png	ok
62426	08/18/2021 16:15:03	1	15	52794	345682	1	109	344392	347498	1	110	347092	2	946	organic	incorrect	348481	1	110	347092	352780	1	112	352492	4	1590	354396	1	112	352492	358045	1	114	357892	2	2590	organic	incorrect	360661	1	115	360592	361644	1	115	360592	2	205	361877	1	115	360592	mog_03090.png	mog_Fledermaus.png	mog_Pilz.png	ok
62426	08/18/2021 16:15:23	1	16	52794	365309	1	116	363292	367142	1	117	365992	3	2309	inorganic	incorrect	369474	1	118	368692	370574	1	118	368692	2	817	371440	1	119	371392	375489	1	120	374092	3	2538	inorganic	incorrect	378055	1	121	376792	380954	1	122	379492	2	979	381970	1	122	379492	far_00736.png	far_Giesskanne.png	far_Heissluftballon.png	ok
62426	08/18/2021 16:15:45	1	17	52794	384819	1	123	382192	387218	1	124	384892	2	1680	inorganic	correct	388934	1	125	387592	392083	1	126	390292	2	719	392833	1	126	390292	397332	1	128	395692	3	1434	inorganic	correct	398798	1	129	398392	401997	1	130	401092	4	495	402513	1	130	401092	mak_00987.png	mak_Socken.png	mak_Rucksack.png	ok
62426	08/18/2021 16:16:06	1	18	52794	406662	1	132	406492	409011	1	132	406492	3	1317	organic	correct	410361	1	133	409192	413759	1	134	411892	3	889	414676	1	135	414592	418724	1	136	417292	3	2247	organic	correct	421024	1	137	419992	423789	1	138	422691	4	302	424139	1	138	422691	fou_17118.png	fou_Feige.png	fou_Schmetterling.png	ok
62426	08/18/2021 16:16:25	1	19	52794	427605	1	139	425391	430137	1	140	428091	2	1362	organic	incorrect	431537	1	141	430791	434802	1	142	433491	3	687	435519	1	142	433491	439001	1	144	438891	2	2745	organic	incorrect	441767	1	145	441591	443466	1	145	441591	2	652	444149	1	145	441591	foq_16799.png	foq_Pinguin.png	foq_Fenchel.png	ok
62426	08/18/2021 16:16:46	1	20	52794	447165	1	147	446991	449497	1	147	446991	3	1919	organic	correct	451447	1	148	449691	453862	1	149	452391	2	1279	455179	1	150	455091	457978	1	151	457791	2	2001	organic	correct	460010	1	151	457791	462626	1	152	460491	3	492	463143	1	152	460491	foa_00207.png	foa_Marienkaefer.png	foa_Aubergine.png	ok
62426	08/18/2021 16:17:07	1	21	52794	467924	1	154	465891	471073	1	155	468591	2	1250	inorganic	correct	472373	1	156	471291	474655	1	157	473991	2	741	475422	1	157	473991	478054	1	158	476691	3	2325	inorganic	correct	480404	1	159	479391	483586	1	160	482091	4	1400	485019	1	161	484791	mal_04470.png	mal_Drucker.png	mal_Kugelschreiber.png	ok
62426	08/18/2021 16:17:26	1	22	52794	488467	1	162	487491	491366	1	163	490191	3	871	organic	correct	492266	1	163	490191	494815	1	164	492891	3	886	495732	1	165	495591	499914	1	166	498291	3	2835	organic	incorrect	502779	1	167	500991	504545	1	168	503691	2	896	505478	1	168	503691	fop_00621.png	fop_Mango.png	fop_Koala.png	ok
62426	08/18/2021 16:17:45	1	23	52794	507978	1	169	506391	510560	1	170	509091	2	2295	organic	incorrect	512893	1	171	511791	514242	1	171	511791	2	1062	515342	1	172	514491	519174	1	173	517191	2	1974	organic	correct	521190	1	174	519891	523472	1	175	522591	3	1390	524888	1	175	522591	mon_65798.png	mon_Fuchs.png	mon_Kartoffel.png	ok
62426	08/18/2021 16:18:07	1	24	52794	526921	1	176	525291	528920	1	177	527991	2	1857	inorganic	correct	530803	1	178	530691	534152	1	179	533391	3	1127	535302	1	179	533391	539184	1	181	538791	3	2719	inorganic	correct	541933	1	182	541491	544448	1	183	544190	3	525	544998	1	183	544190	mae_01010.png	mae_Schach.png	mae_Taschenrechner.png	ok
62426	08/18/2021 16:18:28	1	25	52794	548764	1	184	546890	552262	1	185	549590	3	764	organic	correct	553062	1	186	552290	556261	1	187	554990	3	974	557261	1	187	554990	561559	1	189	560390	2	2658	organic	incorrect	564242	1	190	563090	565708	1	190	563090	2	1259	566991	1	191	565790	mof_02408.png	mof_Spaghetti.png	mof_Hahn.png	ok
62426	08/18/2021 16:18:49	1	26	52794	569757	1	192	568490	572822	1	193	571190	3	393	organic	correct	573239	1	193	571190	577737	1	195	576590	4	1228	579003	1	195	576590	581169	1	196	579290	2	827	organic	correct	582019	1	197	581990	586284	1	198	584690	4	385	586701	1	198	584690	fok_09378.png	fok_Kaenguruh.png	fok_Palme.png	ok
62426	08/18/2021 16:19:10	1	27	52794	591083	1	200	590090	594548	1	201	592790	2	1168	inorganic	correct	595748	1	202	595490	598863	1	203	598190	2	1105	599996	1	203	598190	602296	1	204	600890	2	1850	inorganic	correct	604178	1	205	603590	607810	1	206	606290	2	402	608244	1	206	606290	mao_11634.png	mao_Stempel.png	mao_Kegel.png	ok
62426	08/18/2021 16:19:30	1	28	52794	612375	1	208	611690	615324	1	209	614390	3	811	organic	correct	616158	1	209	614390	620423	1	211	619790	2	228	620689	1	211	619790	624038	1	212	622490	2	2652	organic	correct	626721	1	213	625190	627937	1	214	627890	3	927	628887	1	214	627890	for_15187.png	for_Seehund.png	for_Mandel.png	ok
62426	08/18/2021 16:19:49	1	29	52794	632335	1	215	630590	634185	1	216	633290	2	952	organic	incorrect	635168	1	216	633290	637567	1	217	635990	2	845	638450	1	217	635990	642415	1	219	641390	3	2047	organic	incorrect	644497	6	220	644090	646930	1	221	646790	2	453	647414	1	221	646790	mot_69374.png	mot_Bison.png	mot_Hotdog.png	ok
62426	08/18/2021 16:20:10	1	30	52794	650996	1	222	649490	653811	1	223	652190	2	808	inorganic	correct	654645	1	223	652190	658926	1	225	657590	2	720	659676	1	225	657590	663875	1	227	662990	3	2059	inorganic	correct	665957	1	228	665689	668806	1	229	668389	3	245	669090	1	229	668389	fal_07906.png	fal_Korb.png	fal_Buegeleisen.png	ok
62426	08/18/2021 16:20:31	1	31	52794	672372	1	230	671089	675771	1	231	673789	3	530	organic	correct	676337	1	231	673789	679586	1	233	679189	3	1460	681069	1	233	679189	683985	1	234	681889	3	1643	organic	correct	685651	1	235	684589	688433	1	236	687289	4	1296	689766	1	236	687289	mou_01862.png	mou_Croissant.png	mou_Kraehe.png	ok
62426	08/18/2021 16:20:53	1	32	52794	693315	1	238	692689	696747	1	239	695389	3	502	inorganic	incorrect	697280	1	239	695389	701912	1	241	700789	2	1000	702945	1	241	700789	707010	1	243	706189	2	1823	inorganic	incorrect	708859	1	243	706189	711359	1	244	708889	4	731	712125	1	245	711589	fag_06539.png	fag_Portemonnaie.png	fag_Geschenk.png	ok
62426	08/18/2021 16:21:12	1	33	52794	715391	1	246	714289	717773	1	247	716989	2	1497	inorganic	correct	719323	1	247	716989	722088	1	248	719689	4	1096	723221	1	249	722389	726770	1	250	725089	2	571	inorganic	correct	727370	1	250	725089	730419	1	251	727789	4	1182	731635	1	252	730489	mat_23275.png	mat_Helm.png	mat_Feuerzeug.png	ok
62426	08/18/2021 16:21:31	1	34	52794	734068	1	253	733189	736817	1	254	735889	3	809	inorganic	incorrect	737650	1	254	735889	740266	1	255	738589	2	390	740682	1	255	738589	743681	1	256	741289	3	2207	inorganic	incorrect	745914	1	257	743989	747430	1	258	746689	2	290	747746	1	258	746689	faw_14215.png	faw_Kuechenmaschine.png	faw_Hufeisen.png	ok
62426	08/18/2021 16:21:52	1	35	52794	752728	1	260	752089	755877	1	261	754789	2	873	inorganic	correct	756777	1	261	754789	759559	1	262	757489	3	842	760425	1	263	760189	764641	1	264	762889	3	2092	inorganic	incorrect	766773	1	265	765589	770022	1	266	768289	3	454	770505	1	266	768289	mau_49693.png	mau_Wasserventil.png	mau_Leiter.png	ok
62426	08/18/2021 16:22:13	1	36	52794	774121	1	268	773689	777186	1	269	776389	2	712	inorganic	correct	777919	1	269	776389	780935	1	270	779089	3	284	781252	1	270	779089	785733	1	272	784489	2	990	inorganic	incorrect	786750	1	272	784489	791115	1	274	789888	3	183	791332	1	274	789888	maw_04767.png	maw_Schlauchboot.png	maw_Pingpongschlaeger.png	ok
62426	08/18/2021 16:22:33	1	37	52794	794481	1	275	792588	797363	1	276	795288	3	276	organic	correct	797663	1	276	795288	802511	1	278	800688	4	472	803011	1	278	800688	807160	1	280	806088	2	699	organic	correct	807893	1	280	806088	811175	1	281	808788	4	295	811508	1	281	808788	moh_06446.png	moh_Muecke.png	moh_Birne.png	ok
62426	08/18/2021 16:22:55	1	38	52794	814640	1	283	814188	817289	1	284	816888	2	1557	organic	incorrect	818889	1	284	816888	822338	1	286	822288	3	208	822571	1	286	822288	826453	1	287	824988	2	2957	organic	correct	829435	1	288	827688	831568	1	289	830388	2	220	831818	1	289	830388	fot_00797.png	fot_Taube.png	fot_Salat.png	ok
62426	08/18/2021 16:23:14	1	39	52794	836766	1	291	835788	839249	1	292	838488	3	442	inorganic	incorrect	839715	1	292	838488	844030	1	294	843888	3	190	844247	1	294	843888	847513	1	295	846588	2	2641	inorganic	incorrect	850178	1	296	849288	852111	1	297	851988	2	230	852378	1	297	851988	mas_41366.png	mas_Bueroklammer.png	mas_Tisch.png	ok
62426	08/18/2021 16:23:34	1	40	52794	855893	1	298	854688	858892	1	299	857388	2	1157	inorganic	correct	860075	1	299	857388	862957	1	301	862788	2	796	863790	1	301	862788	866973	1	302	865487	3	2016	inorganic	correct	869039	1	303	868188	871471	1	304	870888	2	236	871738	1	304	870888	fab_06018.png	fab_Staubsauger.png	fab_Kinderwagen.png	ok
62426	08/18/2021 16:23:56	1	41	52794	875620	1	305	873587	878369	1	306	876287	2	898	inorganic	correct	879302	1	307	878988	883334	1	308	881687	4	257	883617	1	308	881687	888382	1	310	887088	2	710	inorganic	correct	889115	1	310	887088	893064	1	312	892487	4	342	893430	1	312	892487	fac_02146.png	fac_Haarbuerste.png	fac_Ohrring.png	ok
62426	08/18/2021 16:24:17	1	42	52794	898279	1	314	897888	901261	1	315	900587	2	1114	organic	incorrect	902411	1	315	900587	904710	1	316	903287	2	318	905060	1	316	903287	908642	1	317	905988	3	2172	organic	correct	910841	1	318	908686	913590	1	319	911387	2	291	913923	1	319	911387	moj_11821.png	moj_Blatt.png	moj_Walnuss.png	ok
62426	08/18/2021 16:24:38	1	43	52794	918439	1	321	916787	920321	1	322	919487	2	999	organic	incorrect	921354	1	322	919487	924636	1	323	922187	2	824	925486	1	324	924887	929451	1	325	927588	3	2330	organic	correct	931817	1	326	930287	934933	1	327	932987	3	232	935200	1	327	932987	mol_07679.png	mol_Pizza.png	mol_Schimpanse.png	ok
62426	08/18/2021 16:24:58	1	44	52794	939798	1	329	938387	942814	1	330	941087	3	532	organic	correct	943380	1	330	941087	946929	1	332	946487	4	205	947162	1	332	946487	952027	1	334	951887	3	1160	organic	correct	953210	1	334	951887	956442	1	335	954587	4	975	957442	1	336	957287	foj_08220.png	foj_Rose.png	foj_Waffel.png	ok
62426	08/18/2021 16:25:19	1	45	52794	960274	1	337	959987	963190	1	338	962687	2	1069	inorganic	correct	964306	1	338	962687	966889	1	339	965387	2	251	967189	1	339	965387	971870	1	341	970787	3	1705	inorganic	incorrect	973603	1	342	973487	976885	1	343	976187	3	242	977152	1	343	976187	fap_16329.png	fap_Knopf.png	fap_Kissen.png	ok
62426	08/18/2021 16:25:41	1	46	52794	981234	1	344	978887	984383	1	346	984287	2	1186	inorganic	correct	985599	1	346	984287	989098	1	347	986987	3	1005	990131	1	348	989687	993396	1	349	992388	2	1882	inorganic	correct	995313	1	350	995087	998928	1	351	997787	2	231	999195	1	351	997787	map_41499.png	map_Pfeife.png	map_Globus.png	ok
62426	08/18/2021 16:26:01	1	47	52794	1002927	1	352	1000488	1005559	1	353	1003187	3	1234	inorganic	incorrect	1006825	1	354	1005887	1010307	1	355	1008587	2	1680	1012024	1	356	1011287	1014673	1	357	1013987	3	1480	inorganic	correct	1016205	1	357	1013987	1018871	1	358	1016687	4	623	1019521	1	359	1019387	faj_07783.png	faj_Schuh.png	faj_Parfuem.png	ok
62426	08/18/2021 16:26:21	1	48	52794	1022837	1	360	1022087	1024636	1	360	1022087	2	1418	organic	incorrect	1026085	1	361	1024787	1029434	1	362	1027486	2	223	1029684	1	362	1027486	1034666	1	364	1032886	2	1872	organic	incorrect	1036565	1	365	1035586	1038814	1	366	1038286	2	882	1039731	1	366	1038286	foi_03389.png	foi_Pflanze.png	foi_Apfelkuchen.png	ok
62426	08/18/2021 16:26:43	1	49	52794	1042713	1	367	1040986	1045945	1	368	1043686	3	373	organic	correct	1046345	1	368	1043686	1050694	1	370	1049086	4	990	1051710	1	370	1049086	1055342	1	372	1054486	3	1218	organic	correct	1056592	1	372	1054486	1059674	1	373	1057186	4	907	1060607	1	374	1059886	foc_02664.png	foc_Brombeere.png	foc_Eule.png	ok
62426	08/18/2021 16:27:04	1	50	52794	1065022	1	375	1062586	1068188	1	377	1067986	3	624	inorganic	incorrect	1068838	1	377	1067986	1072386	1	378	1070686	3	287	1072703	1	378	1070686	1077568	1	380	1076086	3	1730	inorganic	incorrect	1079334	1	381	1078786	1081833	1	382	1081486	2	859	1082716	1	382	1081486	fat_14140.png	fat_Kleiderbuegel.png	fat_Einkaufswagen.png	ok
62426	08/18/2021 16:27:24	1	51	52794	1085832	1	383	1084186	1089097	1	384	1086886	2	296	inorganic	correct	1089431	1	384	1086886	1093663	1	386	1092286	4	286	1093979	1	386	1092286	1097528	1	387	1094986	2	515	inorganic	correct	1098078	1	388	1097686	1102093	1	389	1100386	4	859	1102976	1	389	1100386	mai_23761.png	mai_Auto.png	mai_Gewehr.png	ok
62426	08/18/2021 16:27:42	1	52	52794	1105509	1	390	1103086	1108274	1	391	1105786	3	1962	organic	correct	1110274	1	392	1108486	1112173	1	393	1111186	2	607	1112823	1	393	1111186	1116938	1	395	1116586	3	2117	organic	incorrect	1119087	1	395	1116586	1120653	1	396	1119286	3	793	1121470	1	396	1119286	mob_22833.png	mob_Kiwi.png	mob_Igel.png	ok
62426	08/18/2021 16:28:03	1	53	52794	1124319	1	397	1121986	1127851	1	399	1127386	3	302	organic	correct	1128184	1	399	1127386	1132349	1	400	1130086	4	1175	1133549	1	401	1132786	1136531	1	402	1135486	2	510	organic	correct	1137065	1	402	1135486	1140530	1	403	1138186	4	313	1140880	1	403	1138186	fov_15193.png	fov_Fisch.png	fov_Zucchini.png	ok
62426	08/18/2021 16:28:23	1	54	52794	1144629	1	405	1143586	1148061	1	406	1146285	2	660	organic	incorrect	1148744	1	406	1146285	1152009	1	408	1151685	2	369	1152409	1	408	1151685	1156608	1	409	1154385	2	1805	organic	correct	1158441	1	410	1157085	1161173	1	411	1159785	3	441	1161656	1	411	1159785	moe_23630.png	moe_Waschbaer.png	moe_Pommes.png	ok
62426	08/18/2021 16:28:46	1	55	52794	1164838	1	412	1162485	1168237	1	414	1167885	3	375	organic	correct	1168637	1	414	1167885	1172519	1	415	1170585	4	309	1172852	1	415	1170585	1177751	1	417	1175985	3	820	organic	correct	1178600	1	417	1175985	1183316	1	419	1181385	4	383	1183732	1	419	1181385	mom_59641.png	mom_Loewe.png	mom_Ei.png	ok
62426	08/18/2021 16:29:06	1	56	52794	1187931	1	421	1186785	1190713	1	422	1189485	2	377	inorganic	correct	1191113	1	422	1189485	1194112	1	423	1192185	3	343	1194478	1	423	1192185	1199177	1	425	1197585	3	897	inorganic	correct	1200110	1	425	1197585	1203509	1	427	1202985	3	760	1204292	1	427	1202985	mac_59752.png	mac_Medaille.png	mac_Dartpfeil.png	ok
62426	08/18/2021 16:29:27	1	57	52794	1207957	1	428	1205685	1211373	1	430	1211085	3	427	inorganic	incorrect	1211839	1	430	1211085	1214938	1	431	1213785	2	248	1215221	1	431	1213785	1220253	1	433	1219185	3	1302	inorganic	correct	1221586	1	433	1219185	1224035	1	434	1221885	4	350	1224418	1	434	1221885	fax_15310.png	fax_Klebeband.png	fax_Fahrrad.png	ok
62426	08/18/2021 16:29:46	1	58	52794	1228900	1	436	1227285	1231516	1	437	1229985	2	1953	organic	incorrect	1233499	1	438	1232685	1236131	1	439	1235385	2	856	1237014	1	439	1235385	1240063	1	440	1238085	2	1955	organic	correct	1242046	1	441	1240785	1243728	1	442	1243485	3	1119	1244878	1	442	1243485	mos_23223.png	mos_Traube.png	mos_Eintagsfliege.png	ok
62426	08/18/2021 16:30:05	1	59	52794	1247877	1	443	1246185	1249960	1	444	1248885	3	1827	inorganic	incorrect	1251809	1	445	1251585	1253742	1	445	1251585	2	1029	1254808	1	446	1254285	1257940	1	447	1256985	2	467	inorganic	correct	1258440	1	447	1256985	1263072	1	449	1262385	4	596	1263705	1	449	1262385	fan_18894.png	fan_Lampe.png	fan_Klavier.png	ok
62426	08/18/2021 16:30:26	1	60	52794	1266571	1	450	1265085	1269420	1	451	1267784	2	353	inorganic	correct	1269803	1	451	1267784	1274435	1	453	1273184	4	258	1274718	1	453	1273184	1279050	1	455	1278584	3	1099	inorganic	correct	1280183	1	455	1278584	1284131	1	457	1283984	4	257	1284415	1	457	1283984	fai_07637.png	fai_Foehn.png	fai_Kommode.png	ok
62426	08/18/2021 16:30:47	1	61	52794	1288147	1	458	1286684	1290096	1	459	1289384	2	1371	organic	incorrect	1291496	1	459	1289384	1295411	1	461	1294784	3	309	1295744	1	461	1294784	1300326	1	463	1300184	2	2734	organic	incorrect	1303092	1	464	1302884	1304608	1	464	1302884	2	959	1305591	1	464	1302884	foe_08514.png	foe_Tannenzapfen.png	foe_Adler.png	ok
62426	08/18/2021 16:31:09	1	62	52794	1308990	1	466	1308284	1311855	1	467	1310984	2	229	inorganic	correct	1312139	1	467	1310984	1315471	1	468	1313684	4	308	1315804	1	468	1313684	1320669	1	470	1319084	3	706	inorganic	correct	1321402	1	470	1319084	1326034	1	472	1324484	4	338	1326400	1	472	1324484	maj_01546.png	maj_Krawatte.png	maj_Computermaus.png	ok
62426	08/18/2021 16:31:30	1	63	52794	1331282	1	474	1329884	1332932	1	475	1332584	2	921	organic	incorrect	1333881	1	475	1332584	1337030	1	476	1335284	2	391	1337447	1	476	1335284	1341779	1	478	1340684	3	2305	organic	incorrect	1344111	1	479	1343384	1346744	1	480	1346084	2	308	1347077	1	480	1346084	mog_03277.png	mog_Pilz.png	mog_Fledermaus.png	ok
62426	08/18/2021 16:31:50	1	64	52794	1351542	1	482	1351484	1354324	1	483	1354184	2	540	inorganic	correct	1354891	1	483	1354184	1358506	1	484	1356884	2	288	1358839	1	484	1356884	1361922	1	485	1359584	3	1811	inorganic	incorrect	1363754	1	486	1362284	1366970	1	487	1364984	2	366	1367370	1	487	1364984	far_06518.png	far_Heissluftballon.png	far_Giesskanne.png	ok
62426	08/18/2021 16:32:09	1	65	52794	1371518	1	489	1370384	1373418	1	490	1373084	3	1618	organic	correct	1375067	1	490	1373084	1377433	1	491	1375784	4	549	1378016	1	491	1375784	1381382	1	493	1381184	2	437	organic	correct	1381848	1	493	1381184	1386613	1	494	1383884	4	411	1387047	1	495	1386583	fou_18966.png	fou_Schmetterling.png	fou_Feige.png	ok
62426	08/18/2021 16:32:27	1	66	52794	1390912	1	496	1389283	1393278	1	497	1391983	3	1558	organic	correct	1394861	1	498	1394683	1397426	1	499	1397383	4	1105	1398559	1	499	1397383	1401708	1	500	1400083	2	836	organic	correct	1402575	1	500	1400083	1405574	1	502	1405483	4	307	1405907	1	502	1405483	foa_00426.png	foa_Aubergine.png	foa_Marienkaefer.png	ok
62426	08/18/2021 16:32:49	1	67	52794	1409239	1	503	1408183	1411988	1	504	1410883	2	217	inorganic	correct	1412238	1	504	1410883	1417320	1	506	1416283	4	258	1417603	1	506	1416283	1421851	1	508	1421683	2	547	inorganic	correct	1422435	1	508	1421683	1426117	1	509	1424383	4	319	1426467	1	509	1424383	mak_03979.png	mak_Rucksack.png	mak_Socken.png	ok
62426	08/18/2021 16:33:08	1	68	52794	1431032	1	511	1429783	1433181	1	512	1432483	2	670	organic	incorrect	1433881	1	512	1432483	1438113	1	514	1437883	3	1076	1439212	1	514	1437883	1442411	1	515	1440583	3	949	organic	correct	1443394	1	516	1443283	1446077	1	517	1445983	4	401	1446510	1	517	1445983	foq_17341.png	foq_Fenchel.png	foq_Pinguin.png	ok
62426	08/18/2021 16:33:27	1	69	52794	1450342	1	518	1448683	1452941	1	519	1451383	2	252	inorganic	correct	1453224	1	519	1451383	1456323	1	520	1454083	4	861	1457223	1	521	1456783	1460772	1	522	1459483	3	464	inorganic	correct	1461271	1	522	1459483	1465637	1	524	1464883	2	487	1466153	1	524	1464883	mal_20552.png	mal_Kugelschreiber.png	mal_Drucker.png	ok
62426	08/18/2021 16:33:48	1	70	52794	1469119	1	525	1467583	1471835	1	526	1470283	2	1254	organic	incorrect	1473117	1	527	1472983	1475300	1	527	1472983	2	803	1476133	1	528	1475683	1479815	1	529	1478383	2	1670	organic	correct	1481515	1	530	1481083	1484913	1	531	1483783	3	303	1485247	1	531	1483783	mon_69587.png	mon_Kartoffel.png	mon_Fuchs.png	ok
62426	08/18/2021 16:34:07	1	71	52794	1489845	1	533	1489183	1491661	1	533	1489183	2	1718	inorganic	correct	1493411	1	534	1491883	1495093	1	535	1494583	2	582	1495710	1	535	1494583	1499658	1	536	1497283	3	1282	inorganic	correct	1500975	1	537	1499983	1504190	1	538	1502683	3	679	1504907	1	538	1502683	mae_36426.png	mae_Taschenrechner.png	mae_Schach.png	ok
62426	08/18/2021 16:34:26	1	72	52794	1509339	1	540	1508083	1511321	1	541	1510782	3	268	organic	correct	1511621	1	541	1510782	1515836	1	542	1513482	3	208	1516070	1	542	1513482	1519169	1	544	1518882	3	1436	organic	incorrect	1520635	1	544	1518882	1522884	1	545	1521582	2	1151	1524067	1	545	1521582	fop_07937.png	fop_Koala.png	fop_Mango.png	ok
62426	08/18/2021 16:34:44	1	73	52794	1528199	1	547	1526983	1530765	1	548	1529683	2	424	inorganic	correct	1531214	1	548	1529683	1534447	1	549	1532382	3	579	1535063	1	549	1532382	1538762	1	551	1537782	2	1160	inorganic	correct	1539945	1	551	1537782	1542594	1	552	1540483	4	269	1542894	1	552	1540483	mao_19000.png	mao_Kegel.png	mao_Stempel.png	ok
62426	08/18/2021 16:35:04	1	74	52794	1546159	1	554	1545882	1548792	1	555	1548582	3	940	organic	correct	1549758	1	555	1548582	1552940	1	556	1551282	3	863	1553840	1	556	1551282	1557472	1	558	1556683	2	1441	organic	correct	1558955	1	558	1556683	1561454	1	559	1559383	2	482	1561971	1	559	1559383	for_15880.png	for_Mandel.png	for_Seehund.png	ok
62426	08/18/2021 16:35:26	1	75	52794	1565836	1	561	1564783	1568835	1	562	1567483	2	276	organic	incorrect	1569135	1	562	1567483	1573500	1	564	1572883	3	1115	1574650	1	564	1572883	1577815	1	565	1575583	2	1122	organic	incorrect	1578965	1	566	1578283	1583263	1	567	1580983	3	242	1583530	1	567	1580983	mof_06901.png	mof_Hahn.png	mof_Spaghetti.png	ok
62426	08/18/2021 16:35:46	1	76	52794	1588012	1	569	1586383	1590894	1	570	1589083	2	262	organic	incorrect	1591194	1	570	1589083	1595826	1	572	1594483	2	975	1596826	1	572	1594483	1599391	1	573	1597183	2	1030	organic	correct	1600458	1	574	1599883	1603757	1	575	1602583	4	277	1604056	1	575	1602583	fok_09860.png	fok_Palme.png	fok_Kaenguruh.png	ok
62426	08/18/2021 16:36:06	1	77	52794	1607489	1	576	1605283	1609904	1	577	1607983	2	224	inorganic	correct	1610154	1	577	1607983	1615186	1	579	1613383	4	309	1615519	1	579	1613383	1618851	1	581	1618783	3	1010	inorganic	correct	1619884	1	581	1618783	1622967	1	582	1621483	4	881	1623883	1	582	1621483	fal_07977.png	fal_Buegeleisen.png	fal_Korb.png	ok
62426	08/18/2021 16:36:24	1	78	52794	1627915	1	584	1626883	1630014	1	585	1629582	2	633	organic	incorrect	1630681	1	585	1629582	1633446	1	586	1632283	3	1967	1635446	1	587	1634982	1637962	1	588	1637682	3	2728	organic	correct	1640711	1	589	1640382	1641877	1	589	1640382	2	754	1642660	1	589	1640382	mot_69770.png	mot_Hotdog.png	mot_Bison.png	ok
62426	08/18/2021 16:36:43	1	79	52794	1646126	1	591	1645782	1648241	1	591	1645782	2	303	inorganic	correct	1648575	1	592	1648482	1652024	1	593	1651182	4	807	1652857	1	593	1651182	1656405	1	594	1653882	2	326	inorganic	correct	1656772	1	595	1656582	1660154	1	596	1659282	4	309	1660487	1	596	1659282	fag_06551.png	fag_Geschenk.png	fag_Portemonnaie.png	ok
62426	08/18/2021 16:37:02	1	80	52794	1665002	1	598	1664682	1667002	1	598	1664682	3	925	organic	correct	1667951	1	599	1667382	1671900	1	600	1670082	4	255	1672183	1	600	1670082	1676265	1	602	1675482	2	472	organic	correct	1676765	1	602	1675482	1679931	1	603	1678182	4	294	1680247	1	603	1678182	mou_06524.png	mou_Kraehe.png	mou_Croissant.png	ok
62426	08/18/2021 16:37:21	1	81	52794	1683863	1	605	1683582	1687362	1	606	1686282	2	472	inorganic	correct	1687861	1	606	1686282	1691627	1	607	1688982	4	403	1692060	1	608	1691682	1695059	1	609	1694382	2	585	inorganic	correct	1695675	1	609	1694382	1699791	1	610	1697082	4	710	1700524	1	611	1699782	mat_23754.png	mat_Feuerzeug.png	mat_Helm.png	ok
62426	08/18/2021 16:37:42	1	82	52794	1703156	1	612	1702482	1706172	1	613	1705182	3	834	inorganic	incorrect	1707055	1	613	1705182	1710237	1	614	1707882	2	549	1710820	1	615	1710582	1714519	1	616	1713282	2	1897	inorganic	correct	1716452	1	617	1715982	1719834	1	618	1718682	2	348	1720217	1	618	1718682	mau_58144.png	mau_Leiter.png	mau_Wasserventil.png	ok
62426	08/18/2021 16:38:00	1	83	52794	1724116	1	620	1724082	1727015	1	621	1726782	3	308	inorganic	incorrect	1727348	1	621	1726782	1730797	1	622	1729482	2	836	1731663	1	622	1729482	1734546	1	623	1732182	2	2166	inorganic	incorrect	1736745	1	624	1734882	1738494	1	625	1737582	2	674	1739194	1	625	1737582	faw_14685.png	faw_Hufeisen.png	faw_Kuechenmaschine.png	ok
62426	08/18/2021 16:38:19	1	84	52794	1742376	1	626	1740282	1744076	1	627	1742982	3	638	inorganic	incorrect	1744742	1	627	1742982	1747624	1	628	1745682	3	953	1748607	1	629	1748381	1751740	1	630	1751082	2	2127	inorganic	incorrect	1753906	1	631	1753781	1756122	1	631	1753781	2	785	1756938	1	632	1756481	maw_22459.png	maw_Pingpongschlaeger.png	maw_Schlauchboot.png	ok
62426	08/18/2021 16:38:38	1	85	52794	1760703	1	633	1759181	1763186	1	634	1761881	3	1145	organic	correct	1764352	1	634	1761881	1767801	1	636	1767281	3	197	1768034	1	636	1767281	1772449	1	637	1769981	2	1302	organic	correct	1773782	1	638	1772681	1776048	1	639	1775381	3	824	1776898	1	639	1775381	fot_06092.png	fot_Salat.png	fot_Taube.png	ok
62426	08/18/2021 16:38:59	1	86	52794	1780380	1	640	1778081	1783896	1	642	1783481	2	1901	inorganic	correct	1785828	1	642	1783481	1787294	1	643	1786181	3	1042	1788361	1	643	1786181	1791176	1	644	1788881	3	1937	inorganic	correct	1793142	1	645	1791581	1795725	1	646	1794281	2	234	1795991	1	646	1794281	mas_41937.png	mas_Tisch.png	mas_Bueroklammer.png	ok
62426	08/18/2021 16:39:18	1	87	52794	1800590	1	648	1799681	1802373	1	648	1799681	3	265	inorganic	incorrect	1802689	1	649	1802381	1806305	1	650	1805081	2	821	1807154	1	650	1805081	1811320	1	652	1810481	3	1436	inorganic	correct	1812786	1	652	1810481	1815768	1	653	1813181	2	882	1816684	1	654	1815881	fab_06286.png	fab_Kinderwagen.png	fab_Staubsauger.png	ok
62426	08/18/2021 16:39:39	1	88	52794	1820233	1	655	1818581	1822299	1	656	1821281	3	278	organic	correct	1822599	1	656	1821281	1826814	1	658	1826681	4	310	1827148	1	658	1826681	1831996	1	659	1829381	3	631	organic	correct	1832662	1	660	1832081	1835978	1	661	1834781	4	844	1836844	1	661	1834781	moh_07125.png	moh_Birne.png	moh_Muecke.png	ok
62426	08/18/2021 16:39:58	1	89	52794	1840643	1	663	1840181	1843525	1	664	1842881	2	1669	organic	incorrect	1845225	1	664	1842881	1846974	1	665	1845581	3	481	1847491	1	665	1845581	1850640	1	666	1848281	3	1230	organic	correct	1851923	1	667	1850981	1854705	1	668	1853681	4	413	1855171	1	668	1853681	foj_08937.png	foj_Waffel.png	foj_Rose.png	ok
62426	08/18/2021 16:40:18	1	90	52794	1859770	1	670	1859081	1862869	1	671	1861781	3	1004	organic	correct	1863902	1	671	1861781	1866834	1	672	1864481	2	252	1867117	1	672	1864481	1871849	1	674	1869881	2	1936	organic	correct	1873815	1	675	1872581	1876314	1	676	1875280	3	990	1877331	1	676	1875280	mol_11363.png	mol_Schimpanse.png	mol_Pizza.png	ok
62426	08/18/2021 16:40:38	1	91	52794	1880213	1	677	1877980	1882229	1	678	1880680	2	328	organic	incorrect	1882579	1	678	1880680	1886677	1	680	1886080	2	251	1886961	1	680	1886080	1891009	1	681	1888780	3	1854	organic	correct	1892892	1	682	1891480	1896424	1	683	1894180	2	197	1896657	1	683	1894180	moj_11860.png	moj_Walnuss.png	moj_Blatt.png	ok
62426	08/18/2021 16:41:00	1	92	52794	1900256	1	685	1899580	1902505	1	686	1902280	3	250	inorganic	incorrect	1902805	1	686	1902280	1907687	1	687	1904980	2	315	1908037	1	688	1907680	1911302	1	689	1910380	3	1371	inorganic	correct	1912702	1	689	1910380	1916567	1	691	1915780	4	357	1916951	1	691	1915780	fac_02970.png	fac_Ohrring.png	fac_Haarbuerste.png	ok
62426	08/18/2021 16:41:23	1	93	52794	1921482	1	693	1921180	1924781	1	694	1923880	3	271	inorganic	incorrect	1925081	1	694	1923880	1928580	1	695	1926580	2	379	1928996	1	695	1926580	1933861	1	697	1931980	2	1991	inorganic	correct	1935877	1	698	1934680	1939243	1	699	1937380	2	291	1939560	1	699	1937380	map_49576.png	map_Globus.png	map_Pfeife.png	ok
62426	08/18/2021 16:41:43	1	94	52794	1944441	1	701	1942780	1947673	1	702	1945480	2	1309	inorganic	correct	1949006	1	703	1948180	1952272	1	704	1950880	3	887	1953205	1	704	1950880	1955971	1	705	1953580	2	719	inorganic	correct	1956720	1	706	1956280	1960103	1	707	1958980	4	364	1960502	1	707	1958980	faj_07849.png	faj_Parfuem.png	faj_Schuh.png	ok
62426	08/18/2021 16:42:04	1	95	52794	1964901	1	709	1964380	1967350	1	710	1967080	3	1393	inorganic	incorrect	1968766	1	710	1967080	1971915	1	711	1969780	2	437	1972382	1	711	1969780	1976864	1	713	1975180	2	1836	inorganic	incorrect	1978730	1	714	1977880	1980962	1	715	1980580	2	814	1981812	1	715	1980580	fap_17119.png	fap_Kissen.png	fap_Knopf.png	ok
62426	08/18/2021 16:42:25	1	96	52794	1985411	1	716	1983280	1987127	1	717	1985980	3	1053	organic	correct	1988210	1	717	1985980	1991992	1	719	1991379	2	267	1992292	1	719	1991379	1997173	1	721	1996779	2	1224	organic	correct	1998423	1	721	1996779	2002255	1	723	2002179	3	269	2002572	1	723	2002179	foi_05187.png	foi_Apfelkuchen.png	foi_Pflanze.png	ok
