ID	DateTime	Run	Retrieval_Trial	FaceRecog_OnsetTime	FaceRecog_OnsetTimeUncertainty	FaceRecog_fMRI_Pulse	FaceRecog_fMRI_PulseTime	Assoc_Retrieval_OnsetTime	Assoc_Retrieval_OnsetTimeUncertainty	Assoc_Retrieval_fMRI_Pulse	Assoc_Retrieval_fMRI_PulseTime	Assoc_Retrieval_Pressed_Button	Assoc_Retrieval_RT	Assoc_Retrieval_Response_Category	Assoc_Retrieval_Accuracy	Assoc_Retrieval_Feedback_OnsetTime	Assoc_Retrieval_Feedback_OnsetTimeUncertainty	Assoc_Retrieval_Feedback_fMRI_Pulse	Assoc_Retrieval_Feedback_fMRI_PulseTime	Retrieval_consc_Rating_OnsetTime	Retrieval_consc_Rating_OnsetTimeUncertainty	Retrieval_consc_Rating_fMRI_Pulse	Retrieval_consc_Rating_fMRI_PulseTime	Retrieval_consc_Rating_Pressed_Button	Retrieval_consc_Rating_RT	Retrieval_consc_Rating_Feedback_OnsetTime	Retrieval_consc_Rating_Feedback_OnsetTimeUncertainty	Retrieval_consc_Rating_Feedback_fMRI_Pulse	Retrieval_consc_Rating_Feedback_fMRI_PulseTime	Presented_Person	Presented_Target	Presented_Lure	num_pulse	fifth_pulse_time	TrialStatus
62426	08/17/2021 16:10:08	1	1	1571001	1	523	1570887	1574233	1	524	1573587	2	925	inorganic	correct	1575183	1	524	1573587	1579015	1	526	1578987	2	1259	1580298	1	526	1578987	fat_12032.png	fat_Einkaufswagen.png	fat_Kleiderbuegel.png	523	1570887	ok
62426	08/17/2021 16:10:19	1	2	1583680	1	527	1581687	1585463	1	528	1584387	0	0	organic	miss	1585463	1	529	1587087	1590478	1	530	1589787	2	308	1590811	1	530	1589787	mob_00760.png	mob_Igel.png	mob_Kiwi.png	523	1570887	ok
62426	08/17/2021 16:10:30	1	3	1594143	1	531	1592487	1595843	1	532	1595187	2	839	organic	incorrect	1596709	1	532	1595187	1599841	1	533	1597887	3	842	1600724	1	534	1600588	foc_02157.png	foc_Eule.png	foc_Brombeere.png	523	1570887	ok
62426	08/17/2021 16:10:40	1	4	1605106	1	535	1603287	1608072	1	536	1605987	3	1138	inorganic	incorrect	1609238	1	537	1608687	1611804	1	538	1611387	3	539	1612370	1	538	1611387	mai_06530.png	mai_Gewehr.png	mai_Auto.png	523	1570887	ok
62426	08/17/2021 16:10:51	1	5	1615786	1	539	1614087	1617702	1	540	1616788	2	807	inorganic	correct	1618535	1	540	1616788	1621484	1	541	1619486	4	835	1622350	1	542	1622187	mac_59169.png	mac_Dartpfeil.png	mac_Medaille.png	523	1570887	ok
62426	08/17/2021 16:11:04	1	6	1625982	1	543	1624887	1628781	1	544	1627586	3	889	organic	correct	1629698	1	544	1627586	1633996	1	546	1632987	3	403	1634429	1	546	1632987	mom_59361.png	mom_Ei.png	mom_Loewe.png	523	1570887	ok
62426	08/17/2021 16:11:16	1	7	1639228	1	548	1638387	1641127	1	549	1641087	3	1019	organic	correct	1642177	1	549	1641087	1646325	1	550	1643787	4	480	1646842	1	551	1646487	moe_02012.png	moe_Pommes.png	moe_Waschbaer.png	523	1570887	ok
62426	08/17/2021 16:11:25	1	8	1651041	1	552	1649187	1652807	1	553	1651886	3	2659	organic	correct	1655489	1	554	1654587	1656255	1	554	1654587	4	670	1656955	1	554	1654587	fov_15046.png	fov_Zucchini.png	fov_Fisch.png	523	1570887	ok
62426	08/17/2021 16:11:37	1	9	1660654	1	556	1659986	1663186	1	557	1662687	3	1777	inorganic	incorrect	1664986	1	557	1662687	1667568	1	558	1665386	2	309	1667901	1	558	1665386	fan_17286.png	fan_Klavier.png	fan_Lampe.png	523	1570887	ok
62426	08/17/2021 16:11:48	1	10	1672150	1	560	1670787	1674732	1	561	1673487	2	2322	organic	incorrect	1677082	1	562	1676186	1679548	1	563	1678887	2	287	1679864	1	563	1678887	mos_20953.png	mos_Eintagsfliege.png	mos_Traube.png	523	1570887	ok
62426	08/17/2021 16:12:00	1	11	1683713	1	564	1681586	1687178	1	566	1686987	2	501	inorganic	correct	1687711	1	566	1686987	1691827	1	567	1689686	4	1683	1693543	1	568	1692386	fax_14883.png	fax_Fahrrad.png	fax_Klebeband.png	523	1570887	ok
62426	08/17/2021 16:12:11	1	12	1695192	1	569	1695087	1697125	1	569	1695087	3	2200	inorganic	incorrect	1699374	1	570	1697786	1702190	1	571	1700486	3	362	1702606	1	571	1700486	fai_07494.png	fai_Kommode.png	fai_Foehn.png	523	1570887	ok
62426	08/17/2021 16:12:23	1	13	1706122	1	573	1705886	1708055	1	573	1705886	3	1694	organic	correct	1709771	1	574	1708586	1712886	1	575	1711286	2	385	1713303	1	575	1711286	foe_08236.png	foe_Adler.png	foe_Tannenzapfen.png	523	1570887	ok
62426	08/17/2021 16:12:32	1	14	1717918	1	577	1716686	1720267	1	578	1719386	2	392	inorganic	correct	1720684	1	578	1719386	1723982	1	579	1722086	4	429	1724449	1	579	1722086	maj_01545.png	maj_Computermaus.png	maj_Krawatte.png	523	1570887	ok
62426	08/17/2021 16:12:43	1	15	1727331	1	580	1724787	1729930	1	581	1727486	2	1721	organic	incorrect	1731680	1	582	1730186	1733546	1	583	1732886	4	609	1734179	1	583	1732886	mog_03090.png	mog_Fledermaus.png	mog_Pilz.png	523	1570887	ok
62426	08/17/2021 16:12:53	1	16	1738711	1	585	1738286	1740560	1	585	1738286	2	992	inorganic	correct	1741577	1	586	1740986	1744359	1	587	1743686	2	262	1744659	1	587	1743686	far_00736.png	far_Giesskanne.png	far_Heissluftballon.png	523	1570887	ok
62426	08/17/2021 16:13:03	1	17	1748558	1	588	1746386	1750907	1	589	1749086	3	2718	organic	correct	1753656	1	590	1751786	1754322	1	590	1751786	3	2215	1756571	1	591	1754486	fou_17118.png	fou_Feige.png	fou_Schmetterling.png	523	1570887	ok
62426	08/17/2021 16:13:15	1	18	1758504	1	592	1757186	1761736	1	593	1759886	3	2290	organic	correct	1764052	1	594	1762586	1766835	1	595	1765286	2	367	1767235	1	595	1765286	foq_16799.png	foq_Pinguin.png	foq_Fenchel.png	523	1570887	ok
62426	08/17/2021 16:13:26	1	19	1770483	1	596	1767986	1773499	1	598	1773386	2	1852	organic	incorrect	1775382	1	598	1773386	1778181	1	599	1776086	2	977	1779180	1	600	1778786	foa_00207.png	foa_Marienkaefer.png	foa_Aubergine.png	523	1570887	ok
62426	08/17/2021 16:13:38	1	20	1781563	1	601	1781486	1784629	1	602	1784186	2	493	inorganic	correct	1785145	1	602	1784186	1789260	1	603	1786885	4	455	1789744	1	604	1789586	mak_00987.png	mak_Socken.png	mak_Rucksack.png	523	1570887	ok
62426	08/17/2021 16:13:50	1	21	1793676	1	605	1792286	1796408	1	606	1794985	2	2298	inorganic	correct	1798757	1	607	1797686	1801106	1	608	1800386	3	1094	1802239	1	608	1800386	mae_01010.png	mae_Schach.png	mae_Taschenrechner.png	523	1570887	ok
62426	08/17/2021 16:14:02	1	22	1805472	1	609	1803085	1808770	1	611	1808486	3	2584	organic	correct	1811386	1	612	1811185	1812686	1	612	1811185	3	341	1813052	1	612	1811185	mon_65798.png	mon_Fuchs.png	mon_Kartoffel.png	523	1570887	ok
62426	08/17/2021 16:14:14	1	23	1817301	1	614	1816586	1820850	1	615	1819285	3	1147	inorganic	incorrect	1822033	1	616	1821986	1824648	1	616	1821986	2	1357	1826031	1	617	1824686	mal_04470.png	mal_Drucker.png	mal_Kugelschreiber.png	523	1570887	ok
62426	08/17/2021 16:14:27	1	24	1829247	1	618	1827385	1832296	1	619	1830086	0	0	organic	miss	1832296	1	620	1832785	1837277	1	621	1835485	3	1115	1838427	1	622	1838186	fop_00621.png	fop_Mango.png	fop_Koala.png	523	1570887	ok
62426	08/17/2021 16:14:37	1	25	1841976	1	623	1840885	1844675	1	624	1843585	3	755	organic	correct	1845458	1	624	1843585	1848440	1	625	1846286	3	455	1848940	1	625	1846286	mof_02408.png	mof_Spaghetti.png	mof_Hahn.png	523	1570887	ok
62426	08/17/2021 16:14:49	1	26	1852172	1	627	1851685	1855621	1	628	1854386	3	482	organic	correct	1856138	1	628	1854386	1860386	1	630	1859785	4	1220	1861636	1	630	1859785	fok_09378.png	fok_Kaenguruh.png	fok_Palme.png	523	1570887	ok
62426	08/17/2021 16:15:00	1	27	1864102	1	631	1862486	1866684	1	632	1865185	2	984	inorganic	correct	1867700	1	632	1865185	1871066	1	634	1870586	3	445	1871533	1	634	1870586	mao_11634.png	mao_Stempel.png	mao_Kegel.png	523	1570887	ok
62426	08/17/2021 16:15:11	1	28	1875614	1	635	1873285	1878580	1	636	1875985	3	1159	organic	correct	1879763	1	637	1878685	1882146	1	638	1881385	3	674	1882845	1	638	1881385	for_15187.png	for_Seehund.png	for_Mandel.png	523	1570887	ok
62426	08/17/2021 16:15:22	1	29	1886677	1	639	1884085	1889127	1	640	1886785	3	1485	inorganic	incorrect	1890643	1	641	1889485	1893308	1	642	1892185	2	403	1893742	1	642	1892185	fag_06539.png	fag_Portemonnaie.png	fag_Geschenk.png	523	1570887	ok
62426	08/17/2021 16:15:33	1	30	1897091	1	643	1894885	1899240	1	644	1897585	3	1084	organic	correct	1900373	1	645	1900285	1904271	1	646	1902985	2	702	1905005	1	646	1902985	mot_69374.png	mot_Bison.png	mot_Hotdog.png	523	1570887	ok
62426	08/17/2021 16:15:44	1	31	1908537	1	648	1908385	1910769	1	648	1908385	2	952	organic	incorrect	1911752	1	649	1911085	1915201	1	650	1913785	2	380	1915618	1	650	1913785	mou_01862.png	mou_Croissant.png	mou_Kraehe.png	523	1570887	ok
62426	08/17/2021 16:15:56	1	32	1918800	1	651	1916485	1921666	1	652	1919185	3	1619	inorganic	incorrect	1923315	1	653	1921885	1926880	1	654	1924584	3	400	1927314	1	654	1924584	fal_07906.png	fal_Korb.png	fal_Buegeleisen.png	523	1570887	ok
62426	08/17/2021 16:16:08	1	33	1931546	1	656	1929985	1934278	1	657	1932684	3	1743	inorganic	incorrect	1936044	1	658	1935385	1939360	1	659	1938085	2	344	1939726	1	659	1938085	mau_49693.png	mau_Wasserventil.png	mau_Leiter.png	523	1570887	ok
62426	08/17/2021 16:16:19	1	34	1943208	1	660	1940784	1945074	1	661	1943485	2	371	inorganic	correct	1945474	1	661	1943485	1949306	1	663	1948884	4	783	1950123	1	663	1948884	mat_23275.png	mat_Helm.png	mat_Feuerzeug.png	523	1570887	ok
62426	08/17/2021 16:16:31	1	35	1953988	1	664	1951585	1956804	1	665	1954285	2	523	inorganic	correct	1957353	1	666	1956984	1961502	1	667	1959685	2	274	1961802	1	667	1959685	faw_14215.png	faw_Kuechenmaschine.png	faw_Hufeisen.png	523	1570887	ok
62426	08/17/2021 16:16:42	1	36	1966167	1	669	1965084	1969016	1	670	1967785	2	1052	inorganic	correct	1970099	1	670	1967785	1972848	1	671	1970484	3	1074	1973948	1	672	1973184	maw_04767.png	maw_Schlauchboot.png	maw_Pingpongschlaeger.png	523	1570887	ok
62426	08/17/2021 16:16:53	1	37	1977180	1	673	1975885	1979546	1	674	1978584	3	1068	organic	correct	1980646	1	674	1978584	1984111	1	676	1983985	4	318	1984461	1	676	1983985	moh_06446.png	moh_Muecke.png	moh_Birne.png	523	1570887	ok
62426	08/17/2021 16:17:04	1	38	1988276	1	677	1986684	1990592	1	678	1989384	2	1583	inorganic	correct	1992208	1	679	1992085	1994174	1	679	1992085	3	852	1995091	1	680	1994784	fab_06018.png	fab_Staubsauger.png	fab_Kinderwagen.png	523	1570887	ok
62426	08/17/2021 16:17:15	1	39	1998939	1	681	1997484	2000722	1	682	2000185	2	1931	organic	incorrect	2002688	1	682	2000185	2005471	1	683	2002884	3	507	2006004	1	684	2005584	fot_00797.png	fot_Taube.png	fot_Salat.png	523	1570887	ok
62426	08/17/2021 16:17:28	1	40	2010269	1	685	2008284	2013168	1	686	2010984	3	1228	inorganic	incorrect	2014417	1	687	2013684	2018016	1	688	2016384	2	310	2018349	1	688	2016384	mas_41366.png	mas_Bueroklammer.png	mas_Tisch.png	523	1570887	ok
62426	08/17/2021 16:17:38	1	41	2022948	1	690	2021784	2025430	1	691	2024484	3	1790	organic	correct	2027246	1	692	2027184	2029096	1	692	2027184	4	905	2030029	1	693	2029884	foj_08220.png	foj_Rose.png	foj_Waffel.png	523	1570887	ok
62426	08/17/2021 16:17:47	1	42	2033444	1	694	2032584	2035227	1	694	2032584	2	713	organic	incorrect	2035977	1	695	2035284	2039109	1	696	2037984	2	327	2039459	1	696	2037984	moj_11821.png	moj_Blatt.png	moj_Walnuss.png	523	1570887	ok
62426	08/17/2021 16:17:59	1	43	2042591	1	697	2040684	2045207	1	698	2043384	2	435	inorganic	correct	2045690	1	698	2043384	2048673	1	699	2046084	4	286	2048989	1	700	2048784	fac_02146.png	fac_Haarbuerste.png	fac_Ohrring.png	523	1570887	ok
62426	08/17/2021 16:18:11	1	44	2053937	1	701	2051484	2056820	1	702	2054183	2	959	organic	incorrect	2057803	1	703	2056884	2061985	1	704	2059584	4	258	2062268	1	704	2059584	mol_07679.png	mol_Pizza.png	mol_Schimpanse.png	523	1570887	ok
62426	08/17/2021 16:18:22	1	45	2065933	1	706	2064984	2068566	1	707	2067684	3	1836	inorganic	incorrect	2070432	1	708	2070384	2071965	1	708	2070384	2	861	2072848	1	708	2070384	map_41499.png	map_Pfeife.png	map_Globus.png	523	1570887	ok
62426	08/17/2021 16:18:31	1	46	2076913	1	710	2075784	2078546	1	711	2078483	3	1468	inorganic	incorrect	2080045	1	711	2078483	2082944	1	712	2081184	2	39	2083011	1	712	2081184	fap_16329.png	fap_Knopf.png	fap_Kissen.png	523	1570887	ok
62426	08/17/2021 16:18:42	1	47	2086426	1	713	2083884	2089592	1	715	2089284	3	1383	organic	correct	2091008	1	715	2089284	2093441	1	716	2091984	2	327	2093807	1	716	2091984	foi_03389.png	foi_Pflanze.png	foi_Apfelkuchen.png	523	1570887	ok
62426	08/17/2021 16:18:54	1	48	2097406	1	717	2094683	2100055	1	718	2097384	2	296	inorganic	correct	2100388	1	719	2100084	2105087	1	720	2102783	4	401	2105520	1	721	2105484	faj_07783.png	faj_Schuh.png	faj_Parfuem.png	523	1570887	ok
62426	08/17/2021 16:19:06	1	49	2109569	1	722	2108183	2111901	1	723	2110883	3	517	organic	correct	2112451	1	723	2110883	2117116	1	725	2116283	4	360	2117499	1	725	2116283	foc_02664.png	foc_Brombeere.png	foc_Eule.png	523	1570887	ok
62426	08/17/2021 16:19:16	1	50	2121331	1	726	2118983	2123314	1	727	2121684	2	1810	inorganic	correct	2125147	1	728	2124383	2127129	1	729	2127083	2	522	2127679	1	729	2127083	fat_14140.png	fat_Kleiderbuegel.png	fat_Einkaufswagen.png	523	1570887	ok
62426	08/17/2021 16:19:26	1	51	2131178	1	730	2129784	2133244	1	731	2132483	2	310	inorganic	correct	2133577	1	731	2132483	2136859	1	732	2135183	4	428	2137309	1	732	2135183	mai_23761.png	mai_Auto.png	mai_Gewehr.png	523	1570887	ok
62426	08/17/2021 16:19:38	1	52	2141291	1	734	2140583	2144007	1	735	2143283	2	1939	organic	incorrect	2145990	1	735	2143283	2147689	1	736	2145983	3	785	2148505	1	736	2145983	mob_22833.png	mob_Kiwi.png	mob_Igel.png	523	1570887	ok
62426	08/17/2021 16:19:49	1	53	2152887	1	738	2151384	2155653	1	739	2154083	3	1533	organic	correct	2157219	1	740	2156783	2159268	1	740	2156783	4	234	2159535	1	741	2159484	fov_15193.png	fov_Fisch.png	fov_Zucchini.png	523	1570887	ok
62426	08/17/2021 16:20:03	1	54	2164367	1	742	2162183	2167816	1	744	2167584	2	1576	organic	incorrect	2169415	1	744	2167584	2172647	1	745	2170283	2	264	2172947	1	745	2170283	moe_23630.png	moe_Waschbaer.png	moe_Pommes.png	523	1570887	ok
62426	08/17/2021 16:20:13	1	55	2177929	1	747	2175684	2180045	1	748	2178383	3	861	organic	correct	2180928	1	748	2178383	2185210	1	750	2183783	4	297	2185543	1	750	2183783	mom_59641.png	mom_Loewe.png	mom_Ei.png	523	1570887	ok
62426	08/17/2021 16:20:25	1	56	2188692	1	751	2186483	2191724	1	752	2189183	2	1644	inorganic	correct	2193407	1	753	2191883	2196672	1	754	2194583	4	481	2197189	1	754	2194583	mac_59752.png	mac_Medaille.png	mac_Dartpfeil.png	523	1570887	ok
62426	08/17/2021 16:20:37	1	57	2200221	1	756	2199983	2201937	1	756	2199983	2	2546	inorganic	correct	2204520	1	757	2202683	2207069	1	758	2205383	2	291	2207386	1	758	2205383	fax_15310.png	fax_Klebeband.png	fax_Fahrrad.png	523	1570887	ok
62426	08/17/2021 16:20:48	1	58	2212017	1	760	2210783	2214583	1	761	2213483	2	240	inorganic	correct	2214850	1	761	2213483	2218282	1	762	2216183	4	318	2218632	1	762	2216183	fai_07637.png	fai_Foehn.png	fai_Kommode.png	523	1570887	ok
62426	08/17/2021 16:21:00	1	59	2223230	1	764	2221583	2225846	1	765	2224283	2	1514	organic	incorrect	2227395	1	766	2226983	2230928	1	767	2229682	2	696	2231661	1	767	2229682	mos_23223.png	mos_Traube.png	mos_Eintagsfliege.png	523	1570887	ok
62426	08/17/2021 16:21:10	1	60	2235593	1	769	2235083	2237192	1	769	2235083	2	1136	inorganic	correct	2238358	1	770	2237782	2241491	1	771	2240483	4	487	2242024	1	771	2240483	fan_18894.png	fan_Lampe.png	fan_Klavier.png	523	1570887	ok
62426	08/17/2021 16:21:24	1	61	2245523	1	772	2243183	2249071	1	774	2248583	2	1790	inorganic	correct	2250887	1	774	2248583	2254220	1	776	2253982	3	345	2254586	1	776	2253982	maj_01546.png	maj_Krawatte.png	maj_Computermaus.png	523	1570887	ok
62426	08/17/2021 16:21:34	1	62	2259218	1	777	2256683	2262217	1	779	2262082	0	0	organic	miss	2262217	1	780	2264783	2265732	1	780	2264783	2	1060	2266815	1	780	2264783	foe_08514.png	foe_Tannenzapfen.png	foe_Adler.png	523	1570887	ok
62426	08/17/2021 16:21:45	1	63	2269531	1	781	2267483	2271664	1	782	2270182	3	1152	inorganic	incorrect	2272847	1	782	2270182	2276529	1	784	2275583	2	570	2277129	1	784	2275583	far_06518.png	far_Heissluftballon.png	far_Giesskanne.png	523	1570887	ok
62426	08/17/2021 16:21:57	1	64	2280461	1	785	2278282	2283893	1	787	2283682	2	337	organic	incorrect	2284259	1	787	2283682	2287492	1	788	2286382	2	422	2287942	1	788	2286382	mog_03277.png	mog_Pilz.png	mog_Fledermaus.png	523	1570887	ok
62426	08/17/2021 16:22:07	1	65	2291990	1	790	2291782	2294006	1	790	2291782	3	1131	organic	correct	2295189	1	791	2294482	2298705	1	792	2297183	3	279	2299021	1	792	2297183	foq_17341.png	foq_Fenchel.png	foq_Pinguin.png	523	1570887	ok
62426	08/17/2021 16:22:18	1	66	2302070	1	793	2299882	2304936	1	794	2302582	3	2190	organic	correct	2307152	1	795	2305283	2308268	1	796	2307982	3	1518	2309817	1	796	2307982	foa_00426.png	foa_Aubergine.png	foa_Marienkaefer.png	523	1570887	ok
62426	08/17/2021 16:22:29	1	67	2312850	1	797	2310682	2315899	1	798	2313383	2	277	inorganic	correct	2316199	1	799	2316082	2320697	1	800	2318782	4	394	2321114	1	800	2318782	mak_03979.png	mak_Rucksack.png	mak_Socken.png	523	1570887	ok
62426	08/17/2021 16:22:41	1	68	2324696	1	802	2324182	2327761	1	803	2326882	3	558	organic	correct	2328345	1	803	2326882	2331593	1	804	2329582	4	266	2331893	1	804	2329582	fou_18966.png	fou_Schmetterling.png	fou_Feige.png	523	1570887	ok
62426	08/17/2021 16:22:54	1	69	2336508	1	806	2334982	2339807	1	807	2337682	2	393	inorganic	correct	2340224	1	807	2337682	2344339	1	809	2343082	4	273	2344656	1	809	2343082	mal_20552.png	mal_Kugelschreiber.png	mal_Drucker.png	523	1570887	ok
62426	08/17/2021 16:23:06	1	70	2349637	1	811	2348482	2351737	1	812	2351182	2	1552	organic	incorrect	2353319	1	812	2351182	2356485	1	813	2353882	4	813	2357335	1	814	2356582	fop_07937.png	fop_Koala.png	fop_Mango.png	523	1570887	ok
62426	08/17/2021 16:23:17	1	71	2361683	1	815	2359282	2363949	1	816	2361982	2	1400	inorganic	correct	2365382	1	817	2364682	2368748	1	818	2367381	2	397	2369181	1	818	2367381	mae_36426.png	mae_Taschenrechner.png	mae_Schach.png	523	1570887	ok
62426	08/17/2021 16:23:30	1	72	2372363	1	819	2370082	2375778	1	821	2375481	3	486	organic	correct	2376295	1	821	2375481	2380127	1	822	2378182	2	357	2380510	1	822	2378182	mon_69587.png	mon_Kartoffel.png	mon_Fuchs.png	523	1570887	ok
62426	08/17/2021 16:23:41	1	73	2385275	1	824	2383581	2388341	1	825	2386282	2	1476	organic	incorrect	2389857	1	826	2388982	2392456	1	827	2391681	2	654	2393156	1	827	2391681	fok_09860.png	fok_Palme.png	fok_Kaenguruh.png	523	1570887	ok
62426	08/17/2021 16:23:53	1	74	2396471	1	828	2394382	2398437	1	829	2397082	3	674	organic	correct	2399137	1	829	2397082	2403736	1	831	2402482	2	493	2404252	1	831	2402482	for_15880.png	for_Mandel.png	for_Seehund.png	523	1570887	ok
62426	08/17/2021 16:24:05	1	75	2408517	1	833	2407881	2410683	1	834	2410582	2	2208	organic	incorrect	2412916	1	834	2410582	2414615	1	835	2413281	3	386	2415032	1	835	2413281	mof_06901.png	mof_Hahn.png	mof_Spaghetti.png	523	1570887	ok
62426	08/17/2021 16:24:16	1	76	2419814	1	837	2418682	2423179	1	838	2421381	2	990	inorganic	correct	2424195	1	839	2424081	2426561	1	839	2424081	3	1341	2427928	1	840	2426782	mao_19000.png	mao_Kegel.png	mao_Stempel.png	523	1570887	ok
62426	08/17/2021 16:24:27	1	77	2430843	1	841	2429481	2433392	1	842	2432181	2	860	inorganic	correct	2434275	1	842	2432181	2437274	1	843	2434882	3	1268	2438574	1	844	2437581	fal_07977.png	fal_Buegeleisen.png	fal_Korb.png	523	1570887	ok
62426	08/17/2021 16:24:39	1	78	2441989	1	845	2440281	2444755	1	846	2442982	3	735	organic	correct	2445522	1	846	2442982	2449204	1	848	2448381	4	295	2449537	1	848	2448381	mou_06524.png	mou_Kraehe.png	mou_Croissant.png	523	1570887	ok
62426	08/17/2021 16:24:50	1	79	2453802	1	849	2451081	2456851	1	851	2456481	3	301	organic	correct	2457184	1	851	2456481	2461250	1	852	2459181	2	392	2461666	1	852	2459181	mot_69770.png	mot_Hotdog.png	mot_Bison.png	523	1570887	ok
62426	08/17/2021 16:25:01	1	80	2464932	1	854	2464581	2467714	1	855	2467281	3	1402	inorganic	incorrect	2469147	1	855	2467281	2472979	1	857	2472681	2	461	2473462	1	857	2472681	fag_06551.png	fag_Geschenk.png	fag_Portemonnaie.png	523	1570887	ok
62426	08/17/2021 16:25:13	1	81	2476544	1	858	2475381	2478377	1	859	2478081	3	1629	inorganic	incorrect	2480043	1	859	2478081	2483292	1	860	2480781	2	2129	2485458	1	861	2483481	mat_23754.png	mat_Feuerzeug.png	mat_Helm.png	523	1570887	ok
62426	08/17/2021 16:25:24	1	82	2488190	1	862	2486181	2490490	1	863	2488881	2	481	inorganic	correct	2491023	1	863	2488881	2495388	1	865	2494281	2	604	2496021	1	865	2494281	mau_58144.png	mau_Leiter.png	mau_Wasserventil.png	523	1570887	ok
62426	08/17/2021 16:25:35	1	83	2499103	1	866	2496981	2502502	1	868	2502381	2	1111	inorganic	correct	2503635	1	868	2502381	2506151	1	869	2505080	3	1413	2507601	1	869	2505080	maw_22459.png	maw_Pingpongschlaeger.png	maw_Schlauchboot.png	523	1570887	ok
62426	08/17/2021 16:25:46	1	84	2510666	1	871	2510481	2513382	1	872	2513181	3	453	inorganic	incorrect	2513865	1	872	2513181	2517980	1	873	2515881	2	192	2518197	1	873	2515881	faw_14685.png	faw_Hufeisen.png	faw_Kuechenmaschine.png	523	1570887	ok
62426	08/17/2021 16:25:57	1	85	2521696	1	875	2521281	2524378	1	876	2523981	3	1044	inorganic	incorrect	2525444	1	876	2523981	2528044	1	877	2526681	2	383	2528460	1	877	2526681	mas_41937.png	mas_Tisch.png	mas_Bueroklammer.png	523	1570887	ok
62426	08/17/2021 16:26:08	1	86	2532759	1	879	2532081	2534458	1	879	2532081	3	398	organic	correct	2534891	1	880	2534781	2538407	1	881	2537480	2	374	2538823	2	881	2537480	moh_07125.png	moh_Birne.png	moh_Muecke.png	523	1570887	ok
62426	08/17/2021 16:26:18	1	87	2543455	1	883	2542880	2545271	1	883	2542880	3	1242	organic	correct	2546537	1	884	2545580	2549970	1	885	2548281	4	388	2550386	1	885	2548281	fot_06092.png	fot_Salat.png	fot_Taube.png	523	1570887	ok
62426	08/17/2021 16:26:29	1	88	2553568	1	886	2550980	2556117	1	887	2553681	2	1302	inorganic	correct	2557450	1	888	2556381	2560649	1	889	2559080	2	287	2560966	1	889	2559080	fab_06286.png	fab_Kinderwagen.png	fab_Staubsauger.png	523	1570887	ok
62426	08/17/2021 16:26:40	1	89	2564631	1	891	2564481	2566281	1	891	2564481	2	2351	organic	incorrect	2568663	1	892	2567180	2571112	1	893	2569881	2	1134	2572279	1	893	2569881	foj_08937.png	foj_Waffel.png	foj_Rose.png	523	1570887	ok
62426	08/17/2021 16:26:51	1	90	2575461	1	895	2575280	2578393	1	896	2577981	3	1342	organic	correct	2579759	1	896	2577981	2583042	1	897	2580681	2	273	2583342	1	897	2580681	moj_11860.png	moj_Walnuss.png	moj_Blatt.png	523	1570887	ok
62426	08/17/2021 16:27:01	1	91	2586374	1	899	2586081	2588040	1	899	2586081	2	2449	inorganic	correct	2590539	1	900	2588780	2592605	1	901	2591480	3	441	2593072	1	901	2591480	fac_02970.png	fac_Ohrring.png	fac_Haarbuerste.png	523	1570887	ok
62426	08/17/2021 16:27:12	1	92	2596387	1	902	2594181	2598853	1	903	2596880	3	1207	organic	correct	2600086	1	904	2599580	2602652	1	905	2602281	2	872	2603551	1	905	2602281	mol_11363.png	mol_Schimpanse.png	mol_Pizza.png	523	1570887	ok
62426	08/17/2021 16:27:24	1	93	2606934	1	906	2604980	2610083	1	907	2607680	2	564	inorganic	correct	2610682	1	908	2610381	2615014	1	909	2613080	2	370	2615414	1	909	2613080	map_49576.png	map_Globus.png	map_Pfeife.png	523	1570887	ok
62426	08/17/2021 16:27:36	1	94	2619579	1	911	2618481	2622828	1	912	2621180	2	207	inorganic	correct	2623061	1	912	2621180	2626344	1	913	2623880	3	373	2626744	1	914	2626580	faj_07849.png	faj_Parfuem.png	faj_Schuh.png	523	1570887	ok
62426	08/17/2021 16:27:48	1	95	2631525	1	915	2629280	2634391	1	916	2631980	3	807	inorganic	incorrect	2635224	1	917	2634680	2638889	1	918	2637380	2	276	2639206	1	918	2637380	fap_17119.png	fap_Kissen.png	fap_Knopf.png	523	1570887	ok
62426	08/17/2021 16:28:00	1	96	2643088	1	920	2642780	2645254	1	920	2642780	2	1226	organic	incorrect	2646504	1	921	2645480	2650052	1	922	2648180	2	230	2650319	1	922	2648180	foi_05187.png	foi_Apfelkuchen.png	foi_Pflanze.png	523	1570887	ok
