ID	DateTime	Run	Delayed_Retrieval_Trial	First_Pulse_Time	FaceRecog_OnsetTime	FaceRecog_OnsetTimeUncertainty	FaceRecog_fMRI_Pulse	FaceRecog_fMRI_PulseTime	Assoc_Retrieval_OnsetTime	Assoc_Retrieval_OnsetTimeUncertainty	Assoc_Retrieval_fMRI_Pulse	Assoc_Retrieval_fMRI_PulseTime	Assoc_Retrieval_Pressed_Button	Assoc_Retrieval_RT	Assoc_Retrieval_Response_Category	Assoc_Retrieval_Accuracy	Assoc_Retrieval_Feedback_OnsetTime	Assoc_Retrieval_Feedback_OnsetTimeUncertainty	Assoc_Retrieval_Feedback_fMRI_Pulse	Assoc_Retrieval_Feedback_fMRI_PulseTime	Retrieval_consc_Rating_OnsetTime	Retrieval_consc_Rating_OnsetTimeUncertainty	Retrieval_consc_Rating_fMRI_Pulse	Retrieval_consc_Rating_fMRI_PulseTime	Retrieval_consc_Rating_Pressed_Button	Retrieval_consc_Rating_RT	Retrieval_consc_Rating_Feedback_OnsetTime	Retrieval_consc_Rating_Feedback_OnsetTimeUncertainty	Retrieval_consc_Rating_Feedback_fMRI_Pulse	Retrieval_consc_Rating_Feedback_fMRI_PulseTime	ForcedChoice_OnsetTime	ForcedChoice_OnsetTimeUncertainty	ForcedChoice_fMRI_Pulse	ForcedChoice_fMRI_PulseTime	ForcedChoice_Pressed_Button	ForcedChoice_RT	ForcedChoice_Response_Category	ForcedChoice_Accuracy	ForcedChoice_Feedback_OnsetTime	ForcedChoice_Feedback_OnsetTimeUncertainty	ForcedChoice_Feedback_fMRI_Pulse	ForcedChoice_Feedback_fMRI_PulseTime	Recognition_consc_Rating_OnsetTime	Recognition_consc_Rating_OnsetTimeUncertainty	Recognition_consc_Rating_fMRI_Pulse	Recognition_consc_Rating_fMRI_PulseTime	Recognition_consc_Rating_Pressed_Button	Recognition_consc_Rating_RT	Recognition_consc_Rating_Feedback_OnsetTime	Recognition_consc_Rating_Feedback_OnsetTimeUncertainty	Recognition_consc_Rating_Feedback_fMRI_Pulse	Recognition_consc_Rating_Feedback_fMRI_PulseTime	Presented_Person	Presented_Target	Presented_Lure	TrialStatus
62428	07/21/2021 16:09:39	1	1	45889	58630	1	5	56689	61762	1	6	59389	0	0	organic	miss	61762	1	7	62089	65877	1	8	64789	2	357	66260	1	8	64789	70842	1	10	70189	3	2212	organic	correct	73091	1	11	72888	76124	1	12	75589	4	882	77057	1	12	75589	moh_06446.png	moh_Muecke.png	moh_Birne.png	ok
62428	07/21/2021 16:10:01	1	2	45889	81439	1	14	80988	84954	1	15	83689	3	564	inorganic	incorrect	85554	1	15	83689	89253	1	17	89088	2	480	89769	1	17	89088	94168	1	18	91789	2	1207	inorganic	correct	95401	1	19	94489	98300	1	20	97188	3	1534	99866	1	20	97188	far_00736.png	far_Heissluftballon.png	far_Giesskanne.png	ok
62428	07/21/2021 16:10:21	1	3	45889	102998	1	22	102589	106097	1	23	105288	3	319	organic	correct	106447	1	23	105288	110912	1	25	110690	2	1181	112128	1	25	110690	115294	1	26	113388	2	2394	organic	correct	117710	1	27	116089	119293	1	28	118788	3	1736	121059	1	28	118788	mof_02408.png	mof_Spaghetti.png	mof_Hahn.png	ok
62428	07/21/2021 16:10:43	1	4	45889	123075	1	29	121488	125574	1	30	124189	2	237	inorganic	correct	125857	1	30	124189	130605	1	32	129588	4	279	130922	1	32	129588	135870	1	34	134988	2	642	inorganic	correct	136537	1	34	134988	139969	1	35	137688	4	356	140352	1	35	137688	mat_23275.png	mat_Feuerzeug.png	mat_Helm.png	ok
62428	07/21/2021 16:11:00	1	5	45889	145167	1	37	143088	146767	1	38	145788	2	1559	organic	incorrect	148349	1	38	145788	150665	1	39	148489	2	1255	151948	1	40	151188	154231	1	41	153888	2	2662	organic	correct	156913	1	42	156589	158729	1	42	156589	3	1707	160462	1	43	159288	foa_00207.png	foa_Aubergine.png	foa_Marienkaefer.png	ok
62428	07/21/2021 16:11:19	1	6	45889	162861	1	44	161988	165110	1	45	164688	2	289	inorganic	correct	165427	1	45	164688	169959	1	46	167388	4	798	170792	1	47	170088	173641	1	48	172788	3	1301	inorganic	correct	174990	1	48	172788	177506	1	49	175488	4	308	177839	1	49	175488	mas_41366.png	mas_Bueroklammer.png	mas_Tisch.png	ok
62428	07/21/2021 16:11:38	1	7	45889	181155	1	51	180888	184487	1	52	183588	2	397	organic	incorrect	184920	1	52	183588	188086	1	53	186289	2	878	189002	1	53	186289	192151	1	55	191688	3	2469	organic	correct	194650	1	56	194389	196650	1	56	194389	2	411	197083	1	56	194389	mot_69374.png	mot_Hotdog.png	mot_Bison.png	ok
62428	07/21/2021 16:11:59	1	8	45889	200865	1	58	199788	202714	1	59	202489	3	412	organic	correct	203148	1	59	202489	207613	1	60	205188	2	393	208029	1	61	207888	212378	1	62	210588	2	2675	organic	correct	215077	1	63	213288	217293	1	64	215988	2	903	218226	1	64	215988	fov_15046.png	fov_Zucchini.png	fov_Fisch.png	ok
62428	07/21/2021 16:12:21	1	9	45889	221225	1	65	218688	224740	1	67	224088	2	358	inorganic	correct	225140	1	67	224088	229955	1	69	229488	4	1086	231071	1	69	229488	234920	1	70	232188	3	2574	inorganic	correct	237519	1	71	234888	238869	1	72	237588	4	720	239619	1	72	237588	faw_14215.png	faw_Kuechenmaschine.png	faw_Hufeisen.png	ok
62428	07/21/2021 16:12:42	1	10	45889	243101	1	74	242988	246283	1	75	245688	2	370	inorganic	correct	246683	1	75	245688	250682	1	76	248388	4	374	251081	1	76	248388	255247	1	78	253789	3	858	inorganic	correct	256130	1	78	253789	260512	1	80	259188	4	993	261528	1	80	259188	mau_49693.png	mau_Leiter.png	mau_Wasserventil.png	ok
62428	07/21/2021 16:13:01	1	11	45889	264394	1	81	261888	267593	1	83	267288	3	1082	organic	correct	268709	1	83	267288	272757	1	85	272687	2	961	273757	1	85	272687	276290	1	86	275388	3	2338	organic	correct	278655	1	87	278088	280055	1	87	278088	0	0	280055	1	88	280787	foc_02157.png	foc_Brombeere.png	foc_Eule.png	ok
62428	07/21/2021 16:13:20	1	12	45889	283437	1	88	280787	286619	1	90	286188	2	506	inorganic	correct	287153	1	90	286188	290801	1	91	288887	2	861	291684	1	92	291589	294767	1	93	294287	3	1772	inorganic	correct	296566	1	93	294287	298365	1	94	296987	3	414	298815	1	94	296987	mao_11634.png	mao_Stempel.png	mao_Kegel.png	ok
62428	07/21/2021 16:13:41	1	13	45889	302297	1	95	299688	305363	1	97	305087	2	1163	organic	incorrect	306563	1	97	305087	310145	1	98	307789	2	345	310528	1	99	310488	314593	1	100	313187	2	1944	organic	correct	316559	1	101	315889	319092	1	102	318587	3	300	319425	1	102	318587	mob_00760.png	mob_Kiwi.png	mob_Igel.png	ok
62428	07/21/2021 16:14:03	1	14	45889	323657	1	103	321288	326156	1	104	323989	3	818	organic	correct	327006	1	105	326688	330921	1	106	329388	2	441	331388	1	106	329388	335520	1	108	334788	3	2357	organic	correct	337902	1	109	337488	340335	1	110	340189	2	1071	341434	1	110	340189	mol_07679.png	mol_Pizza.png	mol_Schimpanse.png	ok
62428	07/21/2021 16:14:23	1	15	45889	345066	1	111	342888	348515	1	113	348288	3	281	organic	correct	348832	1	113	348288	353264	1	114	350988	2	278	353580	1	114	350988	357695	1	116	356388	3	1800	organic	correct	359528	1	117	359088	361577	1	117	359088	3	1144	362744	1	118	361788	mog_03090.png	mog_Pilz.png	mog_Fledermaus.png	ok
62428	07/21/2021 16:14:42	1	16	45889	365243	1	119	364488	367509	1	120	367188	3	876	organic	correct	368408	1	120	367188	372590	1	121	369888	2	1017	373640	1	122	372588	376506	1	123	375288	3	2205	organic	incorrect	378738	1	124	377988	380188	1	124	377988	2	1126	381337	1	125	380688	moe_02012.png	moe_Waschbaer.png	moe_Pommes.png	ok
62428	07/21/2021 16:15:01	1	17	45889	384320	1	126	383388	387169	1	127	386088	2	1003	inorganic	correct	388202	1	127	386088	390718	1	128	388788	2	808	391551	1	129	391488	394200	1	129	391488	3	1620	inorganic	correct	395849	1	130	394187	397949	1	131	396888	3	1296	399281	1	131	396888	mae_01010.png	mae_Schach.png	mae_Taschenrechner.png	ok
62428	07/21/2021 16:15:20	1	18	45889	402914	1	133	402287	405779	1	134	404988	3	417	organic	correct	406229	1	134	404988	410544	1	136	410387	4	1144	411711	1	136	410387	414176	1	137	413088	3	973	organic	correct	415176	1	137	413088	418692	1	139	418487	4	764	419508	1	139	418487	foq_16799.png	foq_Fenchel.png	foq_Pinguin.png	ok
62428	07/21/2021 16:15:40	1	19	45889	422107	1	140	421188	423906	1	140	421188	2	1340	organic	incorrect	425273	1	141	423888	428288	1	142	426587	2	996	429321	1	142	426587	433220	1	144	431987	2	2444	organic	correct	435686	1	145	434687	437802	1	146	437388	3	648	438485	1	146	437388	for_15187.png	for_Mandel.png	for_Seehund.png	ok
62428	07/21/2021 16:15:59	1	20	45889	442100	1	147	440087	444250	1	148	442787	2	961	organic	incorrect	445233	1	148	442787	447848	1	149	445488	2	1223	449098	1	150	448187	451997	1	151	450887	2	965	organic	correct	452997	1	151	450887	456829	1	153	456287	4	339	457195	1	153	456287	mos_20953.png	mos_Eintagsfliege.png	mos_Traube.png	ok
62428	07/21/2021 16:16:22	1	21	45889	461827	1	155	461688	463660	1	155	461688	2	563	organic	incorrect	464259	1	155	461688	468425	1	157	467087	4	338	468808	1	157	467087	473706	1	159	472487	0	0	organic	miss	473706	1	160	475187	479238	1	161	477887	3	1361	480637	1	162	480587	fot_00797.png	fot_Salat.png	fot_Taube.png	ok
62428	07/21/2021 16:16:41	1	22	45889	484086	1	163	483287	486785	1	164	485987	3	1885	organic	correct	488701	1	164	485987	491900	1	166	491387	4	367	492300	1	166	491387	496365	1	167	494087	2	660	organic	correct	497048	1	168	496787	500381	1	169	499487	4	978	501380	1	169	499487	mon_65798.png	mon_Fuchs.png	mon_Kartoffel.png	ok
62428	07/21/2021 16:17:02	1	23	45889	503779	1	170	502187	507195	1	171	504887	3	292	organic	correct	507512	1	171	504887	511777	1	173	510287	3	276	512077	1	173	510287	515942	1	175	515687	3	1526	organic	correct	517525	1	175	515687	519757	1	176	518387	4	500	520307	1	176	518387	fou_17118.png	fou_Feige.png	fou_Schmetterling.png	ok
62428	07/21/2021 16:17:23	1	24	45889	524756	1	178	523787	527705	1	179	526487	2	378	inorganic	correct	528105	1	179	526487	532886	1	181	531887	3	1131	534053	1	181	531887	537801	1	183	537287	3	2217	inorganic	correct	540051	1	184	539987	541400	1	184	539987	4	349	541783	1	184	539987	map_41499.png	map_Pfeife.png	map_Globus.png	ok
62428	07/21/2021 16:17:46	1	25	45889	545249	1	185	542687	548231	1	187	548087	2	330	inorganic	correct	548598	1	187	548087	552996	1	188	550787	2	256	553279	1	188	550787	558261	1	190	556187	2	2418	inorganic	correct	560710	1	191	558887	563209	1	192	561587	2	505	563743	1	192	561587	fax_14883.png	fax_Klebeband.png	fax_Fahrrad.png	ok
62428	07/21/2021 16:18:05	1	26	45889	568274	1	194	566987	570590	1	195	569686	2	723	inorganic	correct	571340	1	195	569686	574739	1	196	572387	3	1274	576038	1	197	575087	578254	1	198	577786	3	2429	inorganic	correct	580704	1	199	580487	583586	1	200	583187	3	330	583952	1	200	583187	mac_59169.png	mac_Dartpfeil.png	mac_Medaille.png	ok
62428	07/21/2021 16:18:24	1	27	45889	587435	1	201	585886	590584	1	202	588587	3	1380	inorganic	incorrect	592000	1	203	591287	594082	1	204	593986	3	1302	595415	1	204	593986	598747	1	205	596687	3	2358	inorganic	correct	601130	1	206	599387	602396	1	207	602086	4	409	602829	1	207	602086	fac_02146.png	fac_Haarbuerste.png	fac_Ohrring.png	ok
62428	07/21/2021 16:18:43	1	28	45889	606012	1	208	604787	607661	1	209	607486	2	1087	inorganic	correct	608777	1	209	607486	611227	1	210	610186	3	1166	612426	1	210	610186	616242	1	212	615586	2	566	inorganic	incorrect	616858	1	212	615586	621790	1	214	620987	3	1740	623556	1	214	620987	fai_07494.png	fai_Kommode.png	fai_Foehn.png	ok
62428	07/21/2021 16:19:02	1	29	45889	625388	1	215	623686	627921	1	216	626386	3	1129	organic	correct	629087	1	216	626386	631386	1	217	629087	3	853	632269	1	218	631786	636185	1	219	634486	3	1547	organic	correct	637768	1	220	637187	640400	1	221	639886	4	911	641333	1	221	639886	fok_09378.png	fok_Kaenguruh.png	fok_Palme.png	ok
62428	07/21/2021 16:19:22	1	30	45889	644599	1	222	642586	646665	1	223	645287	3	1123	organic	correct	647814	1	223	645287	650163	1	224	647986	2	2097	652296	1	225	650686	655112	1	226	653386	2	1408	organic	correct	656545	1	227	656086	659344	1	228	658786	4	1224	660593	1	228	658786	mom_59361.png	mom_Loewe.png	mom_Ei.png	ok
62428	07/21/2021 16:19:42	1	31	45889	664309	1	230	664186	667074	1	231	666886	2	946	organic	incorrect	668074	1	231	666886	670990	1	232	669586	3	2167	673189	1	233	672286	675971	1	234	674986	2	2547	organic	incorrect	678554	1	235	677686	680453	1	236	680386	3	2430	682919	1	236	680386	mou_01862.png	mou_Croissant.png	mou_Kraehe.png	ok
62428	07/21/2021 16:20:05	1	32	45889	684768	1	237	683086	688184	1	238	685786	2	316	inorganic	correct	688534	1	239	688486	692682	1	240	691185	4	332	693049	1	240	691185	697897	1	242	696586	2	702	inorganic	correct	698630	1	242	696586	703329	1	244	701986	4	693	704045	1	244	701986	mak_00987.png	mak_Rucksack.png	mak_Socken.png	ok
62428	07/21/2021 16:20:26	1	33	45889	707394	1	245	704686	709777	1	246	707385	2	270	inorganic	correct	710077	1	246	707385	714258	1	248	712786	4	1441	715741	1	249	715485	718840	1	250	718186	2	587	inorganic	correct	719457	1	250	718186	723205	1	251	720886	4	281	723522	1	251	720886	mai_06530.png	mai_Auto.png	mai_Gewehr.png	ok
62428	07/21/2021 16:20:44	1	34	45889	728470	1	253	726286	730736	1	254	728986	2	922	inorganic	correct	731686	1	254	728986	734418	1	256	734386	3	1118	735568	1	256	734386	739050	1	257	737086	3	2439	inorganic	correct	741516	1	258	739785	742716	1	259	742486	3	1000	743749	1	259	742486	maj_01545.png	maj_Krawatte.png	maj_Computermaus.png	ok
62428	07/21/2021 16:21:05	1	35	45889	746431	1	260	745185	748980	1	261	747885	2	989	inorganic	correct	749996	1	261	747885	754312	1	263	753285	3	1079	755428	1	263	753285	757677	1	264	755985	3	1787	inorganic	correct	759493	1	265	758686	762709	1	266	761385	3	669	763409	1	266	761385	mal_04470.png	mal_Kugelschreiber.png	mal_Drucker.png	ok
62428	07/21/2021 16:21:29	1	36	45889	767157	1	268	766786	770673	1	269	769485	2	1967	inorganic	correct	772672	1	270	772185	775471	1	271	774886	3	763	776271	1	271	774886	780769	1	273	780285	2	2530	inorganic	correct	783335	1	274	782985	786068	1	275	785685	4	2112	788217	1	275	785685	fap_16329.png	fap_Kissen.png	fap_Knopf.png	ok
62428	07/21/2021 16:21:48	1	37	45889	791116	1	277	791085	794165	1	278	793785	3	250	inorganic	incorrect	794448	1	278	793785	798913	1	279	796485	3	1484	800429	1	280	799185	802729	1	281	801885	2	1459	inorganic	correct	804211	1	281	801885	806377	1	282	804585	3	1490	807894	1	283	807285	fab_06018.png	fab_Kinderwagen.png	fab_Staubsauger.png	ok
62428	07/21/2021 16:22:06	1	38	45889	809943	1	283	807285	811859	1	284	809985	3	1304	inorganic	incorrect	813208	1	285	812685	816591	1	286	815385	2	1439	818057	1	286	815385	820256	1	287	818085	3	1627	inorganic	correct	821905	1	288	820785	824521	1	289	823485	4	830	825388	1	289	823485	maw_04767.png	maw_Pingpongschlaeger.png	maw_Schlauchboot.png	ok
62428	07/21/2021 16:22:28	1	39	45889	828287	1	290	826185	830319	1	291	828884	0	0	inorganic	miss	830319	1	292	831585	835068	1	293	834285	0	0	835068	1	294	836985	840216	1	295	839685	0	0	inorganic	miss	840216	1	296	842385	845248	1	297	845085	3	1247	846531	1	297	845085	fat_12032.png	fat_Kleiderbuegel.png	fat_Einkaufswagen.png	ok
62428	07/21/2021 16:22:47	1	40	45889	850146	1	298	847785	852462	1	299	850485	2	455	inorganic	correct	852945	1	299	850485	857410	1	301	855885	4	1266	858710	1	302	858585	861742	1	303	861284	3	1584	inorganic	correct	863375	1	303	861284	865491	1	304	863985	4	1508	867024	1	305	866685	faj_07783.png	faj_Parfuem.png	faj_Schuh.png	ok
62428	07/21/2021 16:23:06	1	41	45889	869223	1	305	866685	871405	1	306	869385	3	2266	organic	correct	873705	1	307	872085	875704	1	308	874784	4	747	876487	1	308	874784	880919	1	310	880185	2	900	organic	correct	881852	1	310	880185	884634	1	311	882884	4	721	885384	1	311	882884	moj_11821.png	moj_Walnuss.png	moj_Blatt.png	ok
62428	07/21/2021 16:23:26	1	42	45889	888083	1	312	885585	890516	1	313	888285	3	245	inorganic	incorrect	890782	1	313	888285	894464	1	315	893685	3	1490	895980	1	315	893685	898596	1	316	896385	2	1166	inorganic	incorrect	899796	1	317	899084	903095	1	318	901785	2	1611	904728	1	319	904485	fag_06539.png	fag_Portemonnaie.png	fag_Geschenk.png	ok
62428	07/21/2021 16:23:46	1	43	45889	908310	1	320	907184	911509	1	321	909885	2	1067	organic	incorrect	912625	1	321	909885	915507	1	323	915284	0	0	915507	1	324	917985	919956	1	324	917985	3	2586	organic	correct	922572	1	325	920684	924271	1	326	923384	3	991	925287	1	326	923384	fop_00621.png	fop_Mango.png	fop_Koala.png	ok
62428	07/21/2021 16:24:06	1	44	45889	928303	1	327	926085	930619	1	328	928784	3	666	organic	correct	931319	1	328	928784	934501	1	330	934185	0	0	934501	1	331	936884	939016	1	331	936884	0	0	organic	miss	939016	1	332	939584	943598	1	333	942285	2	800	944431	1	333	942285	foi_03389.png	foi_Pflanze.png	foi_Apfelkuchen.png	ok
62428	07/21/2021 16:24:26	1	45	45889	948763	1	335	947684	951245	1	336	950385	3	989	organic	correct	952262	1	336	950385	954911	1	337	953084	4	692	955627	1	337	953084	958409	1	338	955784	3	1147	organic	correct	959592	1	339	958484	963258	1	340	961184	4	605	963908	1	340	961184	foj_08220.png	foj_Waffel.png	foj_Rose.png	ok
62428	07/21/2021 16:24:46	1	46	45889	968056	1	342	966584	970972	1	343	969284	2	349	inorganic	correct	971355	1	343	969284	974337	1	344	971984	4	889	975254	1	345	974684	978753	1	346	977384	3	899	inorganic	correct	979686	1	346	977384	984267	1	348	982784	3	935	985234	1	348	982784	fan_17286.png	fan_Klavier.png	fan_Lampe.png	ok
62428	07/21/2021 16:25:07	1	47	45889	988816	1	350	988184	991232	1	351	990884	2	1555	inorganic	correct	992814	1	351	990884	995880	1	352	993584	0	0	995880	1	353	996284	1000728	1	354	998984	3	2301	inorganic	incorrect	1003061	1	355	1001684	1005144	1	356	1004384	2	1017	1006193	1	356	1004384	fal_07906.png	fal_Korb.png	fal_Buegeleisen.png	ok
62428	07/21/2021 16:25:27	1	48	45889	1009059	1	357	1007084	1011625	1	358	1009784	3	426	organic	correct	1012091	1	358	1009784	1016973	1	360	1015184	2	1088	1018089	1	361	1017884	1020555	1	361	1017884	0	0	organic	miss	1020555	1	363	1023284	1024770	1	363	1023284	3	1213	1026020	1	364	1025984	foe_08236.png	foe_Tannenzapfen.png	foe_Adler.png	ok
62428	07/21/2021 16:25:47	1	49	45889	1029252	1	365	1028683	1031318	1	365	1028683	3	249	organic	correct	1031601	1	366	1031384	1036117	1	367	1034084	0	0	1036117	1	368	1036783	1040715	1	369	1039484	2	649	organic	correct	1041398	1	369	1039484	1045697	1	371	1044883	4	846	1046580	1	371	1044883	moh_07125.png	moh_Birne.png	moh_Muecke.png	ok
62428	07/21/2021 16:26:08	1	50	45889	1049096	1	372	1047584	1051928	1	373	1050284	2	294	inorganic	correct	1052244	1	373	1050284	1056960	1	375	1055684	4	1087	1058076	1	375	1055684	1060592	1	376	1058383	3	1213	inorganic	correct	1061841	1	377	1061083	1065673	1	378	1063784	4	1203	1066906	1	379	1066483	far_06518.png	far_Giesskanne.png	far_Heissluftballon.png	ok
62428	07/21/2021 16:26:28	1	51	45889	1070522	1	380	1069183	1073037	1	381	1071884	2	1428	inorganic	correct	1074487	1	381	1071884	1076503	1	382	1074583	4	2499	1079035	1	383	1077283	1080168	1	384	1079984	0	0	inorganic	miss	1080168	1	385	1082683	1085583	1	386	1085383	2	1125	1086733	1	386	1085383	mat_23754.png	mat_Helm.png	mat_Feuerzeug.png	ok
62428	07/21/2021 16:26:46	1	52	45889	1090132	1	387	1088084	1092298	1	388	1090783	2	2096	organic	incorrect	1094430	1	389	1093483	1096163	1	389	1093483	2	993	1097179	1	390	1096183	1099562	1	391	1098883	3	1160	organic	incorrect	1100745	1	391	1098883	1103977	1	392	1101583	3	1436	1105443	1	393	1104283	mof_06901.png	mof_Hahn.png	mof_Spaghetti.png	ok
62428	07/21/2021 16:27:06	1	53	45889	1108109	1	394	1106983	1111641	1	395	1109683	0	0	organic	miss	1111641	1	396	1112383	1115207	1	397	1115083	4	2118	1117356	1	397	1115083	1119672	1	398	1117783	3	2192	organic	correct	1121888	1	399	1120483	1123504	1	400	1123183	2	1504	1125037	1	400	1123183	mot_69770.png	mot_Bison.png	mot_Hotdog.png	ok
62428	07/21/2021 16:27:25	1	54	45889	1128635	1	402	1128583	1131518	1	403	1131283	2	1924	organic	incorrect	1133467	1	403	1131283	1135383	1	404	1133983	2	913	1136333	1	404	1133983	1138982	1	405	1136683	0	0	organic	miss	1138982	1	406	1139383	1142547	1	407	1142082	3	979	1143564	1	407	1142082	foa_00426.png	foa_Marienkaefer.png	foa_Aubergine.png	ok
62428	07/21/2021 16:27:45	1	55	45889	1147629	1	409	1147483	1149712	1	409	1147483	3	2717	organic	correct	1152461	1	410	1150182	1154810	1	411	1152883	2	1018	1155859	1	412	1155583	1158292	1	412	1155583	2	1802	organic	correct	1160141	1	413	1158282	1162724	1	414	1160983	2	480	1163240	1	414	1160983	fov_15193.png	fov_Fisch.png	fov_Zucchini.png	ok
62428	07/21/2021 16:28:05	1	56	45889	1167306	1	416	1166382	1169921	1	417	1169083	2	930	inorganic	correct	1170888	1	417	1169083	1174970	1	419	1174482	2	1350	1176353	1	419	1174482	1178668	1	420	1177183	3	1185	inorganic	correct	1179885	1	420	1177183	1183417	1	422	1182582	4	315	1183767	1	422	1182582	mas_41937.png	mas_Tisch.png	mas_Bueroklammer.png	ok
62428	07/21/2021 16:28:24	1	57	45889	1187416	1	423	1185283	1189082	1	424	1187982	3	1098	organic	correct	1190215	1	424	1187982	1192714	1	425	1190682	3	1680	1194430	1	426	1193383	1197512	1	427	1196082	0	0	organic	miss	1197512	1	428	1198782	1202660	1	429	1201483	3	19	1202710	1	429	1201483	foc_02664.png	foc_Eule.png	foc_Brombeere.png	ok
62428	07/21/2021 16:28:43	1	58	45889	1206143	1	430	1204182	1208425	1	431	1206882	0	0	inorganic	miss	1208425	1	432	1209583	1212807	1	433	1212282	3	678	1213507	1	433	1212282	1216939	1	434	1214982	3	1806	inorganic	correct	1218772	1	435	1217683	1220671	1	436	1220382	4	430	1221137	1	436	1220382	mau_58144.png	mau_Wasserventil.png	mau_Leiter.png	ok
62428	07/21/2021 16:29:04	1	59	45889	1225319	1	437	1223083	1228085	1	438	1225783	2	1346	inorganic	correct	1229468	1	439	1228482	1232784	1	440	1231183	2	1195	1234016	1	441	1233882	1237032	1	442	1236582	3	1722	inorganic	correct	1238782	1	442	1236582	1241830	1	443	1239283	4	2402	1244263	1	444	1241982	mao_19000.png	mao_Kegel.png	mao_Stempel.png	ok
62428	07/21/2021 16:29:24	1	60	45889	1246596	1	445	1244682	1248662	1	446	1247383	3	859	inorganic	incorrect	1249545	1	446	1247383	1253210	1	448	1252782	2	257	1253493	1	448	1252782	1258225	1	449	1255483	3	1112	inorganic	correct	1259375	1	450	1258182	1261840	1	451	1260882	4	570	1262440	1	451	1260882	faw_14685.png	faw_Hufeisen.png	faw_Kuechenmaschine.png	ok
62428	07/21/2021 16:29:43	1	61	45889	1265989	1	452	1263583	1267888	1	453	1266282	2	1017	organic	incorrect	1268938	1	453	1266282	1272337	1	455	1271683	2	1042	1273403	1	455	1271683	1276336	1	456	1274382	2	2197	organic	correct	1278568	1	457	1277082	1280867	1	458	1279782	3	1843	1282733	1	459	1282482	mob_22833.png	mob_Igel.png	mob_Kiwi.png	ok
62428	07/21/2021 16:30:04	1	62	45889	1285649	1	460	1285182	1287298	1	460	1285182	0	0	organic	miss	1287298	1	461	1287882	1292380	1	462	1290582	3	449	1292863	1	462	1290582	1296979	1	464	1295982	3	2863	organic	correct	1299878	1	465	1298682	1302143	1	466	1301382	2	476	1302643	1	466	1301382	moe_23630.png	moe_Pommes.png	moe_Waschbaer.png	ok
62428	07/21/2021 16:30:23	1	63	45889	1306609	1	467	1304082	1308841	1	468	1306782	3	934	organic	correct	1309824	1	469	1309482	1313923	1	470	1312182	2	714	1314673	1	470	1312182	1317438	1	471	1314882	2	1249	organic	correct	1318721	1	472	1317581	1321737	1	473	1320282	2	814	1322587	1	473	1320282	mol_11363.png	mol_Schimpanse.png	mol_Pizza.png	ok
62428	07/21/2021 16:30:43	1	64	45889	1325619	1	474	1322982	1327652	1	475	1325681	2	881	organic	incorrect	1328568	1	476	1328382	1331983	1	477	1331082	2	662	1332683	1	477	1331082	1336648	1	479	1336482	3	1526	organic	correct	1338198	1	479	1336482	1341380	1	480	1339182	0	0	1341380	1	481	1341881	mog_03277.png	mog_Fledermaus.png	mog_Pilz.png	ok
62428	07/21/2021 16:31:03	1	65	45889	1344979	1	482	1344582	1347212	1	482	1344582	2	794	organic	incorrect	1348028	1	483	1347282	1350760	1	484	1349981	2	813	1351610	1	484	1349981	1354609	1	485	1352682	3	1595	organic	correct	1356242	1	486	1355382	1359624	1	487	1358081	4	495	1360141	1	487	1358081	foq_17341.png	foq_Pinguin.png	foq_Fenchel.png	ok
62428	07/21/2021 16:31:23	1	66	45889	1364906	1	489	1363481	1367571	1	490	1366181	2	1097	inorganic	correct	1368704	1	490	1366181	1372820	1	492	1371581	4	1806	1374652	1	493	1374281	1376418	1	493	1374281	2	1814	inorganic	correct	1378268	1	494	1376982	1380534	1	495	1379681	4	316	1380884	1	495	1379681	mae_36426.png	mae_Taschenrechner.png	mae_Schach.png	ok
62428	07/21/2021 16:31:42	1	67	45889	1385782	1	497	1385082	1388514	1	498	1387781	3	926	organic	correct	1389464	1	498	1387781	1392630	1	499	1390481	2	2363	1395029	1	500	1393182	1396078	1	501	1395881	3	1367	organic	correct	1397478	1	501	1395881	1400410	1	502	1398581	2	277	1400710	1	502	1398581	for_15880.png	for_Seehund.png	for_Mandel.png	ok
62428	07/21/2021 16:32:03	1	68	45889	1404792	1	504	1403981	1406841	1	505	1406681	3	1727	organic	correct	1408608	1	505	1406681	1410873	1	506	1409381	4	912	1411823	1	506	1409381	1414905	1	508	1414781	2	513	organic	correct	1415455	1	508	1414781	1420054	1	509	1417481	4	702	1420787	1	510	1420181	mos_23223.png	mos_Traube.png	mos_Eintagsfliege.png	ok
62428	07/21/2021 16:32:21	1	69	45889	1425119	1	511	1422881	1427035	1	512	1425581	2	920	inorganic	correct	1427984	1	512	1425581	1430583	1	513	1428281	0	0	1430583	1	514	1430981	1434249	1	515	1433681	0	0	inorganic	miss	1434249	1	516	1436381	1438064	1	516	1436381	2	928	1439014	1	516	1436381	map_49576.png	map_Globus.png	map_Pfeife.png	ok
62428	07/21/2021 16:32:43	1	70	45889	1443129	1	518	1441781	1446678	1	519	1444481	2	1757	organic	incorrect	1448461	1	520	1447180	1451760	1	521	1449881	3	1767	1453559	1	522	1452581	1456675	1	523	1455280	2	2208	organic	correct	1458907	1	524	1457981	1460773	1	525	1460681	2	307	1461107	1	525	1460681	fot_06092.png	fot_Taube.png	fot_Salat.png	ok
62428	07/21/2021 16:33:04	1	71	45889	1465005	1	526	1463380	1468187	1	527	1466081	3	1419	organic	correct	1469637	1	528	1468781	1472453	1	529	1471480	2	914	1473402	1	529	1471480	1476568	1	530	1474181	2	1202	organic	correct	1477801	1	531	1476881	1481800	1	532	1479580	4	343	1482166	1	532	1479580	mon_69587.png	mon_Kartoffel.png	mon_Fuchs.png	ok
62428	07/21/2021 16:33:23	1	72	45889	1485915	1	534	1484981	1488431	1	535	1487680	3	1705	organic	correct	1490163	1	535	1487680	1491913	1	536	1490381	2	1073	1493012	1	536	1490381	1495628	1	537	1493080	2	1164	organic	correct	1496828	1	538	1495780	1499893	1	539	1498481	3	1871	1501793	1	540	1501180	fou_18966.png	fou_Schmetterling.png	fou_Feige.png	ok
62428	07/21/2021 16:33:42	1	73	45889	1505008	1	541	1503880	1506658	1	542	1506581	3	810	inorganic	incorrect	1507508	1	542	1506581	1510223	1	543	1509280	2	728	1510973	1	543	1509280	1514672	1	544	1511980	2	1237	inorganic	correct	1515938	1	545	1514681	1519853	1	546	1517380	2	461	1520337	1	547	1520080	fax_15310.png	fax_Fahrrad.png	fax_Klebeband.png	ok
62428	07/21/2021 16:34:01	1	74	45889	1524718	1	548	1522781	1526851	1	549	1525480	3	1009	inorganic	incorrect	1527884	1	549	1525480	1530433	1	550	1528180	0	0	1530433	1	551	1530881	1534832	1	552	1533580	2	1057	inorganic	correct	1535915	1	552	1533580	1539097	1	554	1538980	4	385	1539513	1	554	1538980	fac_02970.png	fac_Ohrring.png	fac_Haarbuerste.png	ok
62428	07/21/2021 16:34:20	1	75	45889	1543562	1	555	1541680	1546411	1	556	1544380	3	759	inorganic	incorrect	1547194	1	557	1547080	1550093	1	558	1549780	2	742	1550860	1	558	1549780	1553709	1	559	1552480	2	1499	inorganic	incorrect	1555258	1	560	1555180	1557524	1	560	1555180	2	1496	1559057	1	561	1557880	fai_07637.png	fai_Foehn.png	fai_Kommode.png	ok
62428	07/21/2021 16:34:41	1	76	45889	1562456	1	562	1560580	1564988	1	563	1563280	3	792	inorganic	incorrect	1565805	1	563	1563280	1570053	1	565	1568680	2	695	1570770	1	565	1568680	1574635	1	567	1574080	2	1285	inorganic	correct	1575951	1	567	1574080	1578550	1	568	1576781	2	722	1579300	1	568	1576781	mac_59752.png	mac_Medaille.png	mac_Dartpfeil.png	ok
62428	07/21/2021 16:34:59	1	77	45889	1582882	1	570	1582180	1585531	1	571	1584880	3	943	organic	correct	1586498	1	571	1584880	1589980	1	572	1587580	3	764	1590779	1	573	1590280	1594145	1	574	1592980	2	906	organic	correct	1595078	1	574	1592980	1597777	1	575	1595680	4	1058	1598860	1	576	1598380	fok_09860.png	fok_Palme.png	fok_Kaenguruh.png	ok
62428	07/21/2021 16:35:19	1	78	45889	1601326	1	577	1601080	1603575	1	577	1601080	2	1308	organic	incorrect	1604925	1	578	1603780	1607507	1	579	1606480	0	0	1607507	1	580	1609180	1611906	1	581	1611880	2	787	organic	incorrect	1612722	1	581	1611880	1616721	1	582	1614580	2	788	1617537	1	583	1617280	mou_06524.png	mou_Kraehe.png	mou_Croissant.png	ok
62428	07/21/2021 16:35:41	1	79	45889	1621769	1	584	1619980	1624968	1	585	1622680	2	1072	organic	incorrect	1626068	1	586	1625380	1630099	1	587	1628080	3	327	1630449	1	587	1628080	1634865	1	589	1633480	2	1868	organic	correct	1636764	1	590	1636180	1639063	1	591	1638879	2	1025	1640113	1	591	1638879	mom_59641.png	mom_Ei.png	mom_Loewe.png	ok
62428	07/21/2021 16:36:02	1	80	45889	1643128	1	592	1641580	1646311	1	593	1644280	3	689	inorganic	incorrect	1647027	1	594	1646979	1651009	1	595	1649680	2	889	1651959	1	595	1649680	1654708	1	596	1652380	3	1314	inorganic	correct	1656074	1	597	1655079	1660173	1	598	1657781	4	348	1660556	1	599	1660480	mak_03979.png	mak_Socken.png	mak_Rucksack.png	ok
62428	07/21/2021 16:36:24	1	81	45889	1664838	1	600	1663179	1667354	1	601	1665880	2	1568	inorganic	correct	1668953	1	602	1668580	1671752	1	603	1671279	0	0	1671752	1	604	1673981	1676534	1	604	1673981	3	969	inorganic	correct	1677533	1	605	1676679	1681699	1	606	1679379	4	285	1682015	1	606	1679379	fap_17119.png	fap_Knopf.png	fap_Kissen.png	ok
62428	07/21/2021 16:36:45	1	82	45889	1686564	1	608	1684779	1689979	1	609	1687479	2	2579	inorganic	correct	1692595	1	610	1690180	1694211	1	611	1692879	4	848	1695094	1	611	1692879	1697577	1	612	1695579	3	912	inorganic	correct	1698510	1	613	1698280	1702808	1	614	1700979	4	971	1703825	1	615	1703679	mai_23761.png	mai_Gewehr.png	mai_Auto.png	ok
62428	07/21/2021 16:37:04	1	83	45889	1706907	1	616	1706380	1709189	1	617	1709079	2	569	inorganic	correct	1709789	1	617	1709079	1713421	1	618	1711779	2	308	1713755	1	618	1711779	1718186	1	620	1717179	3	1386	inorganic	correct	1719603	1	620	1717179	1722902	1	622	1722579	2	289	1723218	1	622	1722579	maj_01546.png	maj_Computermaus.png	maj_Krawatte.png	ok
62428	07/21/2021 16:37:25	1	84	45889	1726750	1	623	1725280	1729882	1	624	1727979	2	423	inorganic	correct	1730332	1	624	1727979	1734114	1	626	1733380	3	998	1735147	1	626	1733380	1738013	1	627	1736079	2	1219	inorganic	correct	1739263	1	628	1738779	1743145	1	629	1741480	4	330	1743511	1	629	1741480	mal_20552.png	mal_Drucker.png	mal_Kugelschreiber.png	ok
62428	07/21/2021 16:37:45	1	85	45889	1747393	1	631	1746879	1750809	1	632	1749579	3	418	inorganic	incorrect	1751275	1	632	1749579	1754424	1	633	1752279	2	692	1755141	1	634	1754979	1758806	1	635	1757680	2	1350	inorganic	correct	1760189	1	635	1757680	1762671	1	636	1760378	4	315	1763021	1	636	1760378	fat_14140.png	fat_Einkaufswagen.png	fat_Kleiderbuegel.png	ok
62428	07/21/2021 16:38:05	1	86	45889	1767003	1	638	1765779	1769502	1	639	1768479	2	859	inorganic	correct	1770385	1	639	1768479	1773534	1	640	1771179	2	945	1774501	1	641	1773879	1777866	1	642	1776578	2	780	inorganic	correct	1778666	1	642	1776578	1782082	1	644	1781979	4	378	1782498	1	644	1781979	maw_22459.png	maw_Schlauchboot.png	maw_Pingpongschlaeger.png	ok
62428	07/21/2021 16:38:28	1	87	45889	1787330	1	645	1784678	1790629	1	647	1790079	2	1472	inorganic	correct	1792128	1	647	1790079	1795610	1	649	1795479	4	920	1796560	1	649	1795479	1800409	1	650	1798179	2	431	inorganic	correct	1800892	1	650	1798179	1805457	1	652	1803579	4	435	1805924	1	652	1803579	faj_07849.png	faj_Schuh.png	faj_Parfuem.png	ok
62428	07/21/2021 16:38:47	1	88	45889	1810005	1	654	1808979	1812904	1	655	1811680	3	1425	inorganic	incorrect	1814354	1	655	1811680	1816653	1	656	1814379	3	944	1817620	1	657	1817079	1820652	1	658	1819780	3	1632	inorganic	correct	1822318	1	658	1819780	1825833	1	660	1825179	3	346	1826217	1	660	1825179	fab_06286.png	fab_Staubsauger.png	fab_Kinderwagen.png	ok
62428	07/21/2021 16:39:05	1	89	45889	1829199	1	661	1827880	1831415	1	662	1830579	3	814	organic	correct	1832265	1	662	1830579	1835663	1	663	1833279	4	769	1836463	1	664	1835980	1839745	1	665	1838679	2	533	organic	correct	1840312	1	665	1838679	1843444	1	666	1841379	4	910	1844377	1	667	1844080	moj_11860.png	moj_Blatt.png	moj_Walnuss.png	ok
62428	07/21/2021 16:39:25	1	90	45889	1846960	1	668	1846779	1849859	1	669	1849479	3	1008	organic	correct	1850908	1	669	1849479	1855190	1	671	1854879	2	734	1855957	1	671	1854879	1858572	1	672	1857579	2	2017	organic	correct	1860622	1	673	1860279	1863071	1	674	1862979	3	210	1863304	1	674	1862979	fop_07937.png	fop_Koala.png	fop_Mango.png	ok
62428	07/21/2021 16:39:46	1	91	45889	1867186	1	675	1865679	1869502	1	676	1868379	2	299	inorganic	correct	1869835	1	676	1868379	1873734	1	677	1871079	4	800	1874567	1	678	1873779	1878499	1	679	1876479	2	497	inorganic	correct	1879032	1	679	1876479	1883431	1	681	1881879	4	635	1884097	1	681	1881879	fag_06551.png	fag_Geschenk.png	fag_Portemonnaie.png	ok
62428	07/21/2021 16:40:05	1	92	45889	1888729	1	683	1887279	1890562	1	684	1889979	3	1146	organic	correct	1891745	1	684	1889979	1894310	1	685	1892679	2	691	1895027	1	685	1892679	1898142	1	687	1898079	3	1655	organic	incorrect	1899842	1	687	1898079	1901791	1	688	1900779	2	1310	1903141	1	688	1900779	foi_05187.png	foi_Apfelkuchen.png	foi_Pflanze.png	ok
62428	07/21/2021 16:40:25	1	93	45889	1906956	1	690	1906179	1909938	1	691	1908879	3	967	inorganic	incorrect	1910938	1	691	1908879	1914270	1	692	1911579	2	1067	1915370	1	693	1914279	1918269	1	694	1916979	3	2667	inorganic	correct	1920968	1	695	1919679	1923584	1	696	1922378	2	432	1924050	1	696	1922378	fal_07977.png	fal_Buegeleisen.png	fal_Korb.png	ok
62428	07/21/2021 16:40:47	1	94	45889	1927566	1	697	1925079	1929815	1	698	1927779	3	1274	inorganic	incorrect	1931115	1	699	1930479	1934097	1	700	1933179	2	1192	1935313	1	700	1933179	1938895	1	702	1938578	3	1630	inorganic	correct	1940561	1	702	1938578	1943844	1	703	1941279	4	311	1944177	1	704	1943978	fan_18894.png	fan_Lampe.png	fan_Klavier.png	ok
62428	07/21/2021 16:41:05	1	95	45889	1949042	1	705	1946679	1950758	1	706	1949379	2	375	organic	incorrect	1951174	1	706	1949379	1954923	1	708	1954779	2	1424	1956373	1	708	1954779	1958872	1	709	1957479	2	1147	organic	correct	1960055	1	709	1957479	1962704	1	710	1960178	3	695	1963437	1	711	1962879	foj_08937.png	foj_Rose.png	foj_Waffel.png	ok
62428	07/21/2021 16:41:27	1	96	45889	1967402	1	712	1965579	1969985	1	713	1968278	2	1078	organic	incorrect	1971084	1	714	1970979	1974633	1	715	1973679	3	1219	1975883	1	715	1973679	1979748	1	717	1979079	3	1513	organic	incorrect	1981281	1	717	1979079	1984513	1	719	1984478	2	16	1984563	1	719	1984478	foe_08514.png	foe_Adler.png	foe_Tannenzapfen.png	ok
