ID	DateTime	Run	Delayed_Retrieval_Trial	First_Pulse_Time	FaceRecog_OnsetTime	FaceRecog_OnsetTimeUncertainty	FaceRecog_fMRI_Pulse	FaceRecog_fMRI_PulseTime	Assoc_Retrieval_OnsetTime	Assoc_Retrieval_OnsetTimeUncertainty	Assoc_Retrieval_fMRI_Pulse	Assoc_Retrieval_fMRI_PulseTime	Assoc_Retrieval_Pressed_Button	Assoc_Retrieval_RT	Assoc_Retrieval_Response_Category	Assoc_Retrieval_Accuracy	Assoc_Retrieval_Feedback_OnsetTime	Assoc_Retrieval_Feedback_OnsetTimeUncertainty	Assoc_Retrieval_Feedback_fMRI_Pulse	Assoc_Retrieval_Feedback_fMRI_PulseTime	Retrieval_consc_Rating_OnsetTime	Retrieval_consc_Rating_OnsetTimeUncertainty	Retrieval_consc_Rating_fMRI_Pulse	Retrieval_consc_Rating_fMRI_PulseTime	Retrieval_consc_Rating_Pressed_Button	Retrieval_consc_Rating_RT	Retrieval_consc_Rating_Feedback_OnsetTime	Retrieval_consc_Rating_Feedback_OnsetTimeUncertainty	Retrieval_consc_Rating_Feedback_fMRI_Pulse	Retrieval_consc_Rating_Feedback_fMRI_PulseTime	ForcedChoice_OnsetTime	ForcedChoice_OnsetTimeUncertainty	ForcedChoice_fMRI_Pulse	ForcedChoice_fMRI_PulseTime	ForcedChoice_Pressed_Button	ForcedChoice_RT	ForcedChoice_Response_Category	ForcedChoice_Accuracy	ForcedChoice_Feedback_OnsetTime	ForcedChoice_Feedback_OnsetTimeUncertainty	ForcedChoice_Feedback_fMRI_Pulse	ForcedChoice_Feedback_fMRI_PulseTime	Recognition_consc_Rating_OnsetTime	Recognition_consc_Rating_OnsetTimeUncertainty	Recognition_consc_Rating_fMRI_Pulse	Recognition_consc_Rating_fMRI_PulseTime	Recognition_consc_Rating_Pressed_Button	Recognition_consc_Rating_RT	Recognition_consc_Rating_Feedback_OnsetTime	Recognition_consc_Rating_Feedback_OnsetTimeUncertainty	Recognition_consc_Rating_Feedback_fMRI_Pulse	Recognition_consc_Rating_Feedback_fMRI_PulseTime	Presented_Person	Presented_Target	Presented_Lure	TrialStatus
63062	07/20/2021 09:14:32	1	1	37966	54081	1	6	51457	55981	1	7	54166	3	1588	inorganic	incorrect	57597	1	8	56867	60729	1	9	59566	2	1070	61829	1	9	59566	64194	1	10	62266	2	1825	inorganic	correct	66061	1	11	64966	69193	1	12	67666	3	534	69776	1	12	67666	mas_41366.png	mas_Tisch.png	mas_Bueroklammer.png	ok
63062	07/20/2021 09:14:52	1	2	37966	73575	1	14	73066	76724	1	15	75766	2	2243	inorganic	correct	78989	1	16	78466	80156	1	16	78466	2	894	81072	1	16	78466	85404	1	18	83866	2	1883	inorganic	incorrect	87320	1	19	86566	89952	1	20	89266	4	476	90452	1	20	89266	fax_14883.png	fax_Fahrrad.png	fax_Klebeband.png	ok
63062	07/20/2021 09:15:13	1	3	37966	93435	1	21	91966	96734	1	22	94666	3	1338	organic	correct	98100	1	23	97366	101332	1	24	100066	2	1044	102398	1	24	100066	106580	1	26	105466	3	2552	organic	incorrect	109163	1	27	108166	110679	1	27	108166	2	773	111479	1	28	110866	moe_02012.png	moe_Waschbaer.png	moe_Pommes.png	ok
63062	07/20/2021 09:15:35	1	4	37966	115077	1	29	113566	118310	1	30	116266	2	1516	organic	incorrect	119876	1	31	118965	122591	1	32	121666	2	639	123258	1	32	121666	127373	1	34	127065	3	1211	organic	incorrect	128606	1	34	127065	132738	1	36	132466	4	470	133238	1	36	132466	mof_02408.png	mof_Hahn.png	mof_Spaghetti.png	ok
63062	07/20/2021 09:15:54	1	5	37966	137403	1	37	135165	139686	1	38	137866	3	1871	inorganic	incorrect	141585	1	39	140566	144084	1	40	143265	2	651	144767	1	40	143265	147700	1	41	145966	2	2740	inorganic	correct	150465	1	42	148666	152315	1	43	151365	2	594	152931	1	43	151365	maw_04767.png	maw_Pingpongschlaeger.png	maw_Schlauchboot.png	ok
63062	07/20/2021 09:16:13	1	6	37966	155847	1	44	154066	157763	1	45	156766	3	1011	organic	correct	158796	1	45	156766	161412	1	46	159465	4	408	161845	1	46	159465	166527	1	48	164866	3	1012	organic	correct	167576	1	48	164866	170275	1	49	167565	4	484	170792	1	50	170266	mom_59361.png	mom_Loewe.png	mom_Ei.png	ok
63062	07/20/2021 09:16:32	1	7	37966	174557	1	51	172966	176806	1	52	175665	3	1170	organic	correct	178006	1	52	175665	180372	1	53	178366	2	740	181138	1	54	181065	184221	1	55	183765	3	1192	organic	incorrect	185437	1	55	183765	188752	1	56	186466	3	1594	190369	1	57	189165	fou_17118.png	fou_Feige.png	fou_Schmetterling.png	ok
63062	07/20/2021 09:16:51	1	8	37966	193767	1	58	191865	196700	1	59	194566	2	580	organic	incorrect	197316	1	60	197265	201915	1	61	199965	2	1128	203064	1	62	202666	205497	1	63	205365	3	2025	organic	correct	207546	1	63	205365	209146	1	64	208065	4	839	210012	1	64	208065	foa_00207.png	foa_Marienkaefer.png	foa_Aubergine.png	ok
63062	07/20/2021 09:17:13	1	9	37966	213278	1	65	210766	216493	1	67	216165	2	1649	inorganic	correct	218193	1	67	216165	221275	1	68	218865	2	1175	222474	1	69	221565	225623	1	70	224265	2	2695	inorganic	incorrect	228339	1	71	226966	230288	1	72	229665	3	1738	232055	1	72	229665	fal_07906.png	fal_Korb.png	fal_Buegeleisen.png	ok
63062	07/20/2021 09:17:34	1	10	37966	234920	1	73	232365	237819	1	75	237765	2	1887	organic	incorrect	239735	1	75	237765	243017	1	76	240465	2	838	243884	1	77	243165	246500	1	78	245865	3	1955	organic	correct	248482	1	78	245865	250565	1	79	248565	4	441	251031	1	79	248565	foc_02157.png	foc_Eule.png	foc_Brombeere.png	ok
63062	07/20/2021 09:17:54	1	11	37966	255563	1	81	253965	258779	1	82	256665	3	1554	organic	correct	260362	1	83	259365	262911	1	84	262065	2	1138	264094	1	84	262065	266843	1	85	264765	3	1241	organic	correct	268109	1	86	267465	271125	1	87	270165	4	1436	272591	1	87	270165	moh_06446.png	moh_Birne.png	moh_Muecke.png	ok
63062	07/20/2021 09:18:15	1	12	37966	275673	1	89	275564	278772	1	90	278265	3	1303	inorganic	incorrect	280105	1	90	278265	283121	1	91	280965	2	827	283970	1	92	283664	288102	1	93	286365	3	2179	inorganic	incorrect	290302	1	94	289065	292118	1	95	291764	3	444	292584	1	95	291764	fan_17286.png	fan_Lampe.png	fan_Klavier.png	ok
63062	07/20/2021 09:18:35	1	13	37966	296499	1	96	294465	298266	1	97	297165	2	890	inorganic	correct	299182	1	97	297165	303031	1	99	302565	4	512	303580	1	99	302565	307429	1	100	305264	3	947	inorganic	correct	308412	1	101	307964	312177	1	102	310665	4	644	312861	1	102	310665	fac_02146.png	fac_Ohrring.png	fac_Haarbuerste.png	ok
63062	07/20/2021 09:18:55	1	14	37966	317259	1	104	316064	319675	1	105	318765	2	2052	inorganic	correct	321758	1	106	321464	323890	1	106	321464	2	1244	325156	1	107	324164	327572	1	108	326865	3	2005	inorganic	correct	329605	1	109	329564	333070	1	110	332264	4	379	333487	1	110	332264	faj_07783.png	faj_Schuh.png	faj_Parfuem.png	ok
63062	07/20/2021 09:19:15	1	15	37966	337419	1	111	334965	339402	1	112	337664	2	1574	inorganic	correct	341001	1	113	340364	344517	1	114	343065	2	952	345500	1	114	343065	349082	1	116	348464	2	2048	inorganic	correct	351164	1	116	348464	353097	1	117	351165	3	535	353663	1	117	351165	fab_06018.png	fab_Kinderwagen.png	fab_Staubsauger.png	ok
63062	07/20/2021 09:19:35	1	16	37966	356779	1	119	356564	359795	1	120	359265	2	1696	inorganic	correct	361528	1	120	359265	363593	1	121	361964	3	1517	365160	1	122	364664	368325	1	123	367364	2	761	inorganic	correct	369108	1	123	367364	372324	1	124	370064	4	310	372657	1	124	370064	fai_07494.png	fai_Kommode.png	fai_Foehn.png	ok
63062	07/20/2021 09:19:57	1	17	37966	377405	1	126	375464	379138	1	127	378164	3	1478	inorganic	incorrect	380654	1	127	378164	383720	1	129	383564	2	1500	385253	1	129	383564	388568	1	130	386264	3	1582	inorganic	incorrect	390185	1	131	388964	394133	1	132	391664	2	900	395066	1	133	394364	fap_16329.png	fap_Kissen.png	fap_Knopf.png	ok
63062	07/20/2021 09:20:16	1	18	37966	398948	1	134	397064	401064	1	135	399764	2	1895	organic	incorrect	402997	1	136	402464	406212	1	137	405164	2	614	406862	1	137	405164	410294	1	138	407864	2	1721	organic	correct	412060	1	139	410564	414610	1	140	413264	3	1853	416492	1	141	415964	fok_09378.png	fok_Palme.png	fok_Kaenguruh.png	ok
63062	07/20/2021 09:20:37	1	19	37966	418342	1	141	415964	420341	1	142	418664	3	1813	inorganic	incorrect	422190	1	143	421363	424706	1	144	424064	3	1189	425922	1	144	424064	429671	1	146	429463	3	2887	inorganic	correct	432587	1	147	432164	434919	1	148	434864	3	2125	437069	1	148	434864	maj_01545.png	maj_Computermaus.png	maj_Krawatte.png	ok
63062	07/20/2021 09:20:58	1	20	37966	439335	1	149	437563	441934	1	150	440264	3	985	organic	correct	442950	1	150	440264	446599	1	152	445663	3	596	447232	1	152	445663	451464	1	154	451064	2	2525	organic	correct	454013	1	155	453763	456879	1	156	456464	4	411	457312	1	156	456464	moj_11821.png	moj_Walnuss.png	moj_Blatt.png	ok
63062	07/20/2021 09:21:17	1	21	37966	460411	1	157	459164	463077	1	158	461863	2	1128	organic	incorrect	464243	1	158	461863	467458	1	160	467264	2	873	468358	1	160	467264	471157	1	161	469963	2	1412	organic	correct	472590	1	161	469963	474906	1	162	472664	2	558	475489	1	163	475364	mon_65798.png	mon_Kartoffel.png	mon_Fuchs.png	ok
63062	07/20/2021 09:21:38	1	22	37966	479338	1	164	478063	482587	1	165	480764	3	1278	inorganic	incorrect	483886	1	166	483463	486519	1	167	486163	2	597	487152	1	167	486163	490767	1	168	488864	3	2026	inorganic	incorrect	492817	1	169	491563	496282	1	170	494263	3	1093	497398	1	171	496964	mau_49693.png	mau_Wasserventil.png	mau_Leiter.png	ok
63062	07/20/2021 09:22:00	1	23	37966	500197	1	172	499663	502613	1	173	502363	3	683	inorganic	incorrect	503330	1	173	502363	507945	1	175	507763	2	690	508661	1	175	507763	512893	1	176	510463	3	1469	inorganic	incorrect	514409	1	177	513164	516708	1	178	515863	3	2315	519058	1	179	518563	mal_04470.png	mal_Drucker.png	mal_Kugelschreiber.png	ok
63062	07/20/2021 09:22:20	1	24	37966	522023	1	180	521264	523673	1	180	521264	2	1283	organic	incorrect	524989	1	181	523963	528621	1	182	526663	2	933	529587	1	183	529364	532870	1	184	532063	2	2268	organic	incorrect	535169	1	185	534763	537285	1	185	534763	2	1279	538601	1	186	537464	foq_16799.png	foq_Pinguin.png	foq_Fenchel.png	ok
63062	07/20/2021 09:22:39	1	25	37966	542383	1	187	540163	544582	1	188	542863	2	1166	inorganic	correct	545782	1	189	545563	549831	1	190	548263	2	868	550730	1	190	548263	553596	1	191	550963	3	1888	inorganic	correct	555512	1	192	553663	557261	1	193	556363	4	1096	558394	1	193	556363	mat_23275.png	mat_Feuerzeug.png	mat_Helm.png	ok
63062	07/20/2021 09:22:59	1	26	37966	560994	1	194	559063	563626	1	195	561763	2	1372	organic	incorrect	565026	1	196	564463	567691	1	197	567163	2	1176	568891	1	197	567163	572256	1	198	569863	3	1631	organic	correct	573923	1	199	572563	577088	1	200	575263	4	407	577521	1	200	575263	foj_08220.png	foj_Rose.png	foj_Waffel.png	ok
63062	07/20/2021 09:23:18	1	27	37966	580437	1	201	577963	583936	1	203	583363	3	1894	organic	correct	585852	1	203	583363	587884	1	204	586063	2	850	588768	1	204	586063	591533	1	206	591463	3	1855	organic	incorrect	593416	1	206	591463	595682	1	207	594163	2	674	596382	1	207	594163	mot_69374.png	mot_Bison.png	mot_Hotdog.png	ok
63062	07/20/2021 09:23:39	1	28	37966	599797	1	209	599563	601963	1	209	599563	3	1247	inorganic	incorrect	603246	1	210	602263	607061	1	211	604963	2	1666	608777	1	212	607662	610910	1	213	610363	2	2234	inorganic	correct	613176	1	214	613063	616308	1	215	615762	4	340	616675	1	215	615762	mai_06530.png	mai_Gewehr.png	mai_Auto.png	ok
63062	07/20/2021 09:23:59	1	29	37966	620957	1	216	618463	623739	1	217	621163	2	1589	inorganic	correct	625355	1	218	623862	627271	1	219	626563	2	1549	628854	1	219	626563	631453	1	220	629263	2	1662	inorganic	incorrect	633136	1	221	631962	636551	1	222	634663	2	1492	638068	1	223	637363	fag_06539.png	fag_Portemonnaie.png	fag_Geschenk.png	ok
63062	07/20/2021 09:24:17	1	30	37966	641000	1	224	640062	643299	1	225	642763	3	1386	inorganic	incorrect	644715	1	225	642763	647381	1	226	645463	2	1143	648547	1	227	648162	651230	1	228	650863	3	2326	inorganic	correct	653579	1	228	650863	655178	1	229	653563	4	1748	656961	1	230	656262	mac_59169.png	mac_Medaille.png	mac_Dartpfeil.png	ok
63062	07/20/2021 09:24:38	1	31	37966	659394	1	231	658963	661076	1	231	658963	2	1389	organic	incorrect	662493	1	232	661662	665725	1	233	664362	2	1176	666924	1	233	664362	670190	1	235	669762	0	0	organic	miss	670190	1	236	672462	674955	1	236	672462	2	886	675871	1	237	675163	mol_07679.png	mol_Pizza.png	mol_Schimpanse.png	ok
63062	07/20/2021 09:25:00	1	32	37966	680003	1	238	677862	683252	1	239	680562	2	875	inorganic	correct	684152	1	240	683262	687434	1	241	685962	2	501	687967	1	241	685962	691899	1	243	691362	2	1506	inorganic	correct	693432	1	243	691362	697114	1	245	696762	2	416	697564	1	245	696762	mao_11634.png	mao_Kegel.png	mao_Stempel.png	ok
63062	07/20/2021 09:25:20	1	33	37966	701629	1	246	699462	703979	1	247	702162	2	1626	organic	incorrect	705628	1	248	704862	708277	1	249	707562	2	698	709027	1	249	707562	713609	1	251	712962	2	1795	organic	incorrect	715425	1	251	712962	717407	1	252	715661	3	394	717824	1	252	715661	mou_01862.png	mou_Croissant.png	mou_Kraehe.png	ok
63062	07/20/2021 09:25:41	1	34	37966	722089	1	254	721062	725205	1	255	723761	3	914	organic	correct	726154	1	255	723761	730003	1	257	729162	2	1432	731469	1	257	729162	733902	1	258	731861	3	1289	organic	correct	735218	1	259	734562	738134	1	260	737262	4	1107	739267	1	260	737262	for_15187.png	for_Mandel.png	for_Seehund.png	ok
63062	07/20/2021 09:25:59	1	35	37966	743099	1	262	742662	744881	1	262	742662	3	1264	organic	correct	746181	1	263	745362	748380	1	264	748061	2	1228	749647	1	264	748061	753112	1	265	750762	2	1978	organic	correct	755111	1	266	753462	757144	1	267	756161	2	1675	758860	1	267	756161	foe_08236.png	foe_Adler.png	foe_Tannenzapfen.png	ok
63062	07/20/2021 09:26:18	1	36	37966	761026	1	268	758862	762809	1	269	761562	3	1335	inorganic	incorrect	764175	1	269	761562	767141	1	271	766962	3	1999	769173	1	271	766962	770973	1	272	769662	2	2527	inorganic	incorrect	773522	1	273	772361	775671	1	274	775062	2	1240	776937	1	274	775062	fat_12032.png	fat_Kleiderbuegel.png	fat_Einkaufswagen.png	ok
63062	07/20/2021 09:26:38	1	37	37966	779670	1	275	777761	782752	1	276	780461	2	548	inorganic	correct	783335	1	277	783162	788017	1	278	785861	4	509	788550	1	278	785861	792099	1	280	791262	3	1186	inorganic	correct	793315	1	280	791262	796397	1	281	793961	4	427	796847	1	282	796661	mak_00987.png	mak_Rucksack.png	mak_Socken.png	ok
63062	07/20/2021 09:26:58	1	38	37966	800063	1	283	799362	801896	1	283	799362	2	1021	inorganic	correct	802945	1	284	802061	806294	1	285	804761	4	908	807244	1	285	804761	810459	1	287	810161	3	955	inorganic	correct	811442	1	287	810161	815358	1	288	812861	4	301	815691	1	289	815562	mae_01010.png	mae_Schach.png	mae_Taschenrechner.png	ok
63062	07/20/2021 09:27:17	1	39	37966	819673	1	290	818261	822922	1	291	820961	3	1604	inorganic	incorrect	824555	1	292	823662	826337	1	292	823662	2	829	827204	1	293	826361	829969	1	294	829061	3	1064	inorganic	correct	831069	1	294	829061	834318	1	295	831761	3	824	835168	1	296	834461	faw_14215.png	faw_Hufeisen.png	faw_Kuechenmaschine.png	ok
63062	07/20/2021 09:27:35	1	40	37966	839166	1	297	837161	841765	1	298	839861	3	823	organic	correct	842615	1	299	842561	845914	1	300	845261	3	680	846631	1	300	845261	849380	1	301	847961	2	1051	organic	correct	850463	1	301	847961	853595	1	303	853361	4	405	854028	1	303	853361	fop_00621.png	fop_Koala.png	fop_Mango.png	ok
63062	07/20/2021 09:27:56	1	41	37966	857127	1	304	856061	860526	1	305	858761	2	1792	organic	incorrect	862342	1	306	861461	865291	1	307	864161	3	1659	866974	1	308	866861	868673	1	308	866861	3	1701	organic	correct	870406	1	309	869561	873371	1	310	872261	2	1239	874638	1	310	872261	mog_03090.png	mog_Pilz.png	mog_Fledermaus.png	ok
63062	07/20/2021 09:28:19	1	42	37966	878370	1	312	877661	881385	1	313	880361	3	385	organic	correct	881802	1	313	880361	886200	1	315	885761	4	1305	887533	1	315	885761	890999	1	316	888461	2	796	organic	correct	891815	1	317	891161	895181	1	318	893860	4	370	895581	1	318	893860	mos_20953.png	mos_Traube.png	mos_Eintagsfliege.png	ok
63062	07/20/2021 09:28:39	1	43	37966	900446	1	320	899261	903345	1	321	901960	3	951	organic	correct	904328	1	321	901960	907460	1	323	907361	2	727	908226	1	323	907361	912558	1	324	910060	3	1196	organic	correct	913775	1	325	912761	917373	1	326	915461	4	371	917773	1	326	915461	mob_00760.png	mob_Igel.png	mob_Kiwi.png	ok
63062	07/20/2021 09:28:58	1	44	37966	920805	1	327	918160	923421	1	328	920861	3	1097	inorganic	incorrect	924554	1	329	923561	927420	1	330	926260	2	1683	929136	1	331	928961	931835	1	332	931661	2	1837	inorganic	incorrect	933701	1	332	931661	936284	1	333	934360	2	1107	937417	1	334	937061	far_00736.png	far_Heissluftballon.png	far_Giesskanne.png	ok
63062	07/20/2021 09:29:18	1	45	37966	940399	1	335	939760	942165	1	335	939760	2	1737	organic	incorrect	943931	1	336	942460	946647	1	337	945161	2	705	947380	1	337	945161	950146	1	338	947860	2	1180	organic	correct	951362	1	339	950560	955344	1	340	953261	4	292	955677	1	340	953261	fot_00797.png	fot_Salat.png	fot_Taube.png	ok
63062	07/20/2021 09:29:39	1	46	37966	960359	1	342	958660	962441	1	343	961361	3	1806	organic	correct	964274	1	344	964060	966273	1	344	964060	2	885	967190	1	345	966760	970439	1	346	969461	2	1681	organic	incorrect	972155	1	346	969461	975837	1	348	974860	3	338	976203	1	348	974860	foi_03389.png	foi_Pflanze.png	foi_Apfelkuchen.png	ok
63062	07/20/2021 09:29:59	1	47	37966	980602	1	350	980260	983718	1	351	982960	3	1736	organic	correct	985484	1	351	982960	987133	1	352	985661	2	1206	988366	1	352	985661	992298	1	354	991060	3	2388	organic	correct	994714	1	355	993761	995930	1	355	993761	4	1199	997163	1	356	996460	fov_15046.png	fov_Fisch.png	fov_Zucchini.png	ok
63062	07/20/2021 09:30:19	1	48	37966	1000712	1	357	999160	1003561	1	358	1001860	2	1241	inorganic	correct	1004844	1	359	1004560	1008826	1	360	1007260	2	989	1009842	1	360	1007260	1012375	1	361	1009960	2	1329	inorganic	correct	1013724	1	362	1012660	1017406	1	363	1015360	4	259	1017689	1	363	1015360	map_41499.png	map_Pfeife.png	map_Globus.png	ok
63062	07/20/2021 09:30:37	1	49	37966	1020922	1	365	1020760	1022488	1	365	1020760	2	1934	inorganic	correct	1024454	1	366	1023460	1026070	1	366	1023460	2	817	1026920	1	367	1026160	1029969	1	368	1028860	3	1142	inorganic	correct	1031135	1	368	1028860	1035350	1	370	1034260	3	816	1036200	1	370	1034260	mas_41937.png	mas_Bueroklammer.png	mas_Tisch.png	ok
63062	07/20/2021 09:30:56	1	50	37966	1038932	1	371	1036960	1041098	1	372	1039660	2	1261	organic	incorrect	1042381	1	372	1039660	1045280	1	374	1045060	2	1303	1046613	1	374	1045060	1048729	1	375	1047760	3	2461	organic	incorrect	1051211	1	376	1050460	1053011	1	376	1050460	3	1737	1054794	1	377	1053160	mof_06901.png	mof_Spaghetti.png	mof_Hahn.png	ok
63062	07/20/2021 09:31:17	1	51	37966	1058009	1	378	1055860	1060508	1	379	1058560	2	499	inorganic	correct	1061041	1	379	1058560	1064907	1	381	1063959	2	267	1065207	1	381	1063959	1070072	1	383	1069360	3	2402	inorganic	correct	1072504	1	384	1072059	1074370	1	384	1072059	2	886	1075287	1	385	1074760	fax_15310.png	fax_Klebeband.png	fax_Fahrrad.png	ok
63062	07/20/2021 09:31:37	1	52	37966	1078619	1	386	1077460	1080202	1	387	1080159	3	762	organic	correct	1081001	1	387	1080159	1084684	1	388	1082860	3	1423	1086133	1	389	1085560	1089748	1	390	1088259	2	878	organic	correct	1090648	1	390	1088259	1095313	1	392	1093660	4	367	1095713	1	392	1093660	moe_23630.png	moe_Pommes.png	moe_Waschbaer.png	ok
63062	07/20/2021 09:31:58	1	53	37966	1098695	1	393	1096359	1101578	1	394	1099060	2	728	inorganic	correct	1102344	1	395	1101760	1106060	1	396	1104459	4	301	1106393	1	396	1104459	1111091	1	398	1109860	2	636	inorganic	correct	1111758	1	398	1109860	1115373	1	400	1115260	4	332	1115740	1	400	1115260	maw_22459.png	maw_Schlauchboot.png	maw_Pingpongschlaeger.png	ok
63062	07/20/2021 09:32:17	1	54	37966	1119988	1	401	1117959	1121621	1	402	1120659	2	2092	organic	incorrect	1123737	1	403	1123360	1126186	1	404	1126059	3	821	1127036	1	404	1126059	1131401	1	405	1128759	2	1279	organic	correct	1132701	1	406	1131460	1135583	1	407	1134159	4	422	1136033	1	407	1134159	foa_00426.png	foa_Aubergine.png	foa_Marienkaefer.png	ok
63062	07/20/2021 09:32:38	1	55	37966	1139082	1	408	1136859	1141148	1	409	1139560	2	1209	organic	incorrect	1142381	1	410	1142259	1145763	1	411	1144959	2	322	1146113	1	411	1144959	1151044	1	413	1150359	2	1230	organic	correct	1152327	1	413	1150359	1155160	1	414	1153059	4	613	1155810	1	415	1155760	fou_18966.png	fou_Schmetterling.png	fou_Feige.png	ok
63062	07/20/2021 09:32:57	1	56	37966	1159792	1	416	1158459	1161674	1	417	1161159	2	1442	organic	incorrect	1163140	1	417	1161159	1165440	1	418	1163859	2	1393	1166856	1	419	1166559	1170038	1	420	1169259	2	2141	organic	correct	1172204	1	421	1171959	1174853	1	422	1174659	3	296	1175186	1	422	1174659	mom_59641.png	mom_Ei.png	mom_Loewe.png	ok
63062	07/20/2021 09:33:17	1	57	37966	1179085	1	423	1177359	1181684	1	424	1180059	2	428	inorganic	correct	1182134	1	424	1180059	1185050	1	425	1182759	4	481	1185566	1	426	1185459	1189965	1	427	1188160	2	613	inorganic	correct	1190614	1	427	1188160	1194563	1	429	1193559	4	645	1195246	1	429	1193559	fal_07977.png	fal_Buegeleisen.png	fal_Korb.png	ok
63062	07/20/2021 09:33:38	1	58	37966	1198828	1	430	1196259	1200828	1	431	1198959	3	854	organic	correct	1201727	1	432	1201659	1205909	1	433	1204359	4	614	1206559	1	433	1204359	1210191	1	435	1209760	2	544	organic	correct	1210758	1	435	1209760	1215556	1	437	1215160	4	334	1215923	1	437	1215160	moh_07125.png	moh_Muecke.png	moh_Birne.png	ok
63062	07/20/2021 09:33:57	1	59	37966	1220005	1	438	1217859	1221837	1	439	1220559	3	1742	inorganic	incorrect	1223603	1	440	1223260	1225469	1	440	1223260	2	407	1225903	1	440	1223260	1229468	1	442	1228659	3	2279	inorganic	correct	1231767	1	443	1231360	1234250	1	444	1234059	3	1180	1235466	1	444	1234059	fan_18894.png	fan_Klavier.png	fan_Lampe.png	ok
63062	07/20/2021 09:34:18	1	60	37966	1238498	1	445	1236759	1241814	1	446	1239460	3	335	organic	correct	1242180	1	446	1239460	1247095	1	448	1244859	4	1307	1248428	1	449	1247560	1251661	1	450	1250259	3	556	organic	correct	1252260	1	450	1250259	1255676	1	451	1252959	4	759	1256459	1	452	1255660	foc_02664.png	foc_Brombeere.png	foc_Eule.png	ok
63062	07/20/2021 09:34:38	1	61	37966	1260224	1	453	1258359	1261874	1	454	1261059	2	1122	inorganic	correct	1263023	1	454	1261059	1265406	1	455	1263760	4	1044	1266472	1	455	1263760	1270254	1	457	1269159	3	892	inorganic	correct	1271171	1	457	1269159	1275702	1	459	1274559	4	388	1276119	1	459	1274559	faj_07849.png	faj_Parfuem.png	faj_Schuh.png	ok
63062	07/20/2021 09:34:58	1	62	37966	1279951	1	460	1277259	1281967	1	461	1279959	2	1184	inorganic	correct	1283183	1	462	1282659	1286832	1	463	1285359	2	601	1287465	1	463	1285359	1291181	1	465	1290759	3	1446	inorganic	correct	1292647	1	465	1290759	1295262	1	466	1293459	3	944	1296229	1	467	1296159	fab_06286.png	fab_Staubsauger.png	fab_Kinderwagen.png	ok
63062	07/20/2021 09:35:21	1	63	37966	1299694	1	468	1298859	1302993	1	469	1301559	3	845	inorganic	incorrect	1303860	1	469	1301559	1307192	1	471	1306959	2	614	1307842	1	471	1306959	1312040	1	472	1309659	2	940	inorganic	correct	1313006	1	473	1312359	1317438	1	474	1315059	4	328	1317788	1	475	1317759	fac_02970.png	fac_Haarbuerste.png	fac_Ohrring.png	ok
63062	07/20/2021 09:35:43	1	64	37966	1322437	1	476	1320459	1325536	1	477	1323159	2	1037	inorganic	correct	1326602	1	478	1325859	1329101	1	479	1328559	2	960	1330084	6	479	1328559	1334099	1	481	1333959	2	1263	inorganic	correct	1335382	1	481	1333959	1339564	1	483	1339359	3	362	1339947	1	483	1339359	fai_07637.png	fai_Foehn.png	fai_Kommode.png	ok
63062	07/20/2021 09:36:03	1	65	37966	1344796	1	485	1344759	1348178	1	486	1347459	2	1570	inorganic	correct	1349794	1	486	1347459	1352776	1	487	1350158	2	932	1353743	1	488	1352859	1356409	1	489	1355559	2	1903	inorganic	correct	1358341	1	490	1358258	1361290	1	491	1360959	2	663	1361990	1	491	1360959	maj_01546.png	maj_Krawatte.png	maj_Computermaus.png	ok
63062	07/20/2021 09:36:23	1	66	37966	1364656	1	492	1363659	1367571	1	493	1366358	3	551	organic	correct	1368155	1	493	1366358	1372820	1	495	1371759	4	1175	1374019	1	495	1371759	1377635	1	497	1377159	3	849	organic	correct	1378518	1	497	1377159	1381283	1	498	1379859	4	843	1382150	1	498	1379859	moj_11860.png	moj_Blatt.png	moj_Walnuss.png	ok
63062	07/20/2021 09:36:44	1	67	37966	1384649	1	499	1382558	1387848	1	500	1385259	3	382	organic	correct	1388264	1	501	1387958	1391747	1	502	1390658	4	799	1392580	1	502	1390658	1396961	1	504	1396058	3	1260	organic	correct	1398261	1	504	1396058	1402026	1	506	1401459	4	500	1402560	1	506	1401459	fok_09860.png	fok_Kaenguruh.png	fok_Palme.png	ok
63062	07/20/2021 09:37:04	1	68	37966	1405925	1	507	1404158	1408141	1	508	1406858	3	1411	inorganic	incorrect	1409574	1	508	1406858	1413373	1	510	1412258	2	359	1413756	1	510	1412258	1416971	1	511	1414958	3	831	inorganic	correct	1417838	1	512	1417659	1421720	1	513	1420358	4	386	1422136	1	513	1420358	fap_17119.png	fap_Knopf.png	fap_Kissen.png	ok
63062	07/20/2021 09:37:23	1	69	37966	1426285	1	515	1425759	1429151	1	516	1428458	2	1465	organic	incorrect	1430650	1	516	1428458	1432633	1	517	1431158	2	1180	1433849	1	517	1431158	1436032	1	518	1433859	2	2137	organic	incorrect	1438198	1	519	1436558	1440164	1	520	1439258	2	932	1441130	1	520	1439258	foq_17341.png	foq_Fenchel.png	foq_Pinguin.png	ok
63062	07/20/2021 09:37:45	1	70	37966	1445329	1	522	1444658	1447594	1	523	1447358	3	1491	inorganic	incorrect	1449127	1	523	1447358	1451660	1	524	1450058	2	271	1451960	1	524	1450058	1456092	1	526	1455458	2	2139	inorganic	correct	1458257	1	527	1458158	1461123	1	528	1460858	4	399	1461556	1	528	1460858	mal_20552.png	mal_Kugelschreiber.png	mal_Drucker.png	ok
63062	07/20/2021 09:38:05	1	71	37966	1466455	1	530	1466258	1468404	1	530	1466258	2	1501	inorganic	correct	1469937	1	531	1468958	1473036	1	532	1471658	4	1749	1474819	1	533	1474358	1477034	1	533	1474358	2	2580	inorganic	correct	1479650	1	534	1477058	1482599	1	536	1482458	2	469	1483099	1	536	1482458	mau_58144.png	mau_Leiter.png	mau_Wasserventil.png	ok
63062	07/20/2021 09:38:27	1	72	37966	1487198	1	537	1485158	1488980	1	538	1487858	3	720	organic	correct	1489730	1	538	1487858	1493779	1	540	1493258	2	429	1494245	1	540	1493258	1498944	1	542	1498658	3	1494	organic	incorrect	1500477	1	542	1498658	1504342	1	544	1504057	2	946	1505325	1	544	1504057	mon_69587.png	mon_Fuchs.png	mon_Kartoffel.png	ok
63062	07/20/2021 09:38:47	1	73	37966	1508990	1	545	1506758	1511023	1	546	1509458	2	1488	inorganic	correct	1512539	1	547	1512157	1514705	1	547	1512157	2	782	1515521	1	548	1514858	1518970	1	549	1517558	3	2335	inorganic	correct	1521336	1	550	1520257	1524085	1	551	1522958	3	641	1524752	1	551	1522958	mai_23761.png	mai_Auto.png	mai_Gewehr.png	ok
63062	07/20/2021 09:39:08	1	74	37966	1528867	1	553	1528357	1531916	1	554	1531058	3	775	organic	correct	1532716	1	554	1531058	1535331	1	555	1533758	2	700	1536065	1	555	1533758	1540197	1	557	1539158	2	1444	organic	correct	1541663	1	557	1539158	1545578	1	559	1544557	4	688	1546311	1	559	1544557	foj_08937.png	foj_Waffel.png	foj_Rose.png	ok
63062	07/20/2021 09:39:29	1	75	37966	1550077	1	561	1549957	1552959	1	562	1552657	3	1520	inorganic	incorrect	1554508	1	562	1552657	1557191	1	563	1555358	3	480	1557707	1	563	1555358	1562156	1	565	1560757	3	1248	inorganic	correct	1563439	1	565	1560757	1566438	1	567	1566157	4	1252	1567721	1	567	1566157	mat_23754.png	mat_Helm.png	mat_Feuerzeug.png	ok
63062	07/20/2021 09:39:49	1	76	37966	1570603	1	568	1568857	1572586	1	569	1571558	2	1269	organic	incorrect	1573885	1	569	1571558	1577834	1	571	1576957	2	285	1578150	1	571	1576957	1581633	1	572	1579658	3	1833	organic	correct	1583499	1	573	1582357	1586681	1	574	1585057	2	1095	1587814	1	575	1587758	mot_69770.png	mot_Hotdog.png	mot_Bison.png	ok
63062	07/20/2021 09:40:09	1	77	37966	1590979	1	576	1590457	1593562	1	577	1593157	3	1475	organic	correct	1595078	1	577	1593157	1597194	1	578	1595858	2	1027	1598260	1	578	1595858	1602326	1	580	1601257	3	1918	organic	correct	1604275	1	581	1603957	1607540	1	582	1606657	4	347	1607924	1	582	1606657	mol_11363.png	mol_Schimpanse.png	mol_Pizza.png	ok
63062	07/20/2021 09:40:28	1	78	37966	1611156	1	583	1609357	1612905	1	584	1612057	2	1326	inorganic	correct	1614255	1	584	1612057	1617770	1	586	1617457	2	358	1618154	1	586	1617457	1621769	1	587	1620157	2	1145	inorganic	correct	1622935	1	588	1622857	1626467	1	589	1625557	4	2261	1628767	1	590	1628257	fag_06551.png	fag_Geschenk.png	fag_Portemonnaie.png	ok
63062	07/20/2021 09:40:48	1	79	37966	1630249	1	590	1628257	1632399	1	591	1630957	2	1100	inorganic	correct	1633532	1	591	1630957	1637080	1	593	1636357	3	1407	1638513	1	593	1636357	1640946	1	594	1639057	2	816	inorganic	correct	1641796	1	595	1641757	1645511	1	596	1644457	4	306	1645861	1	596	1644457	mac_59752.png	mac_Dartpfeil.png	mac_Medaille.png	ok
63062	07/20/2021 09:41:09	1	80	37966	1649876	1	597	1647157	1653392	1	599	1652557	2	355	inorganic	correct	1653775	1	599	1652557	1657507	1	600	1655257	2	632	1658173	1	601	1657956	1662788	1	602	1660657	3	2597	inorganic	correct	1665421	1	603	1663357	1666621	1	604	1666056	2	1052	1667703	1	604	1666056	mao_19000.png	mao_Stempel.png	mao_Kegel.png	ok
63062	07/20/2021 09:41:28	1	81	37966	1670902	1	605	1668757	1673435	1	606	1671457	3	798	inorganic	incorrect	1674268	1	607	1674156	1677617	1	608	1676857	2	719	1678367	1	608	1676857	1681582	1	609	1679557	2	1864	inorganic	correct	1683481	1	610	1682256	1685198	1	611	1684957	2	646	1685881	1	611	1684957	fat_14140.png	fat_Einkaufswagen.png	fat_Kleiderbuegel.png	ok
63062	07/20/2021 09:41:48	1	82	37966	1689779	1	612	1687657	1692662	1	613	1690356	3	360	organic	correct	1693045	1	613	1690356	1697327	1	615	1695757	4	557	1697927	1	615	1695757	1701142	1	616	1698456	2	1154	organic	correct	1702325	1	617	1701157	1705058	1	618	1703857	4	625	1705707	1	618	1703857	for_15880.png	for_Seehund.png	for_Mandel.png	ok
63062	07/20/2021 09:42:08	1	83	37966	1709956	1	620	1709257	1712422	1	621	1711956	2	447	organic	incorrect	1712905	1	621	1711956	1716120	1	622	1714656	2	891	1717037	1	622	1714656	1719869	1	623	1717357	3	2521	organic	incorrect	1722418	1	624	1720056	1724401	1	625	1722756	2	958	1725384	1	625	1722756	mou_06524.png	mou_Kraehe.png	mou_Croissant.png	ok
63062	07/20/2021 09:42:26	1	84	37966	1729499	1	626	1728156	1731499	1	627	1730856	3	1379	organic	correct	1732915	1	627	1730856	1735831	1	628	1733557	4	1004	1736863	1	629	1736256	1739479	1	630	1738956	3	918	organic	correct	1740429	1	630	1738956	1743994	1	631	1741657	4	407	1744444	1	632	1744356	foe_08514.png	foe_Tannenzapfen.png	foe_Adler.png	ok
63062	07/20/2021 09:42:45	1	85	37966	1747876	1	633	1747056	1750159	1	634	1749757	2	1071	organic	incorrect	1751259	1	634	1749757	1754624	1	635	1752456	3	1090	1755740	1	636	1755156	1758706	1	637	1757856	2	1547	organic	correct	1760289	1	637	1757856	1763188	1	638	1760556	4	538	1763754	1	639	1763256	fop_07937.png	fop_Mango.png	fop_Koala.png	ok
63062	07/20/2021 09:43:04	1	86	37966	1766570	1	640	1765956	1768303	1	640	1765956	2	1089	inorganic	correct	1769419	1	641	1768656	1773618	1	642	1771356	2	1545	1775201	1	643	1774056	1778166	1	644	1776756	3	1513	inorganic	correct	1779716	1	645	1779456	1782182	1	645	1779456	4	753	1782965	1	646	1782156	faw_14685.png	faw_Kuechenmaschine.png	faw_Hufeisen.png	ok
63062	07/20/2021 09:43:24	1	87	37966	1785797	1	647	1784856	1787830	1	648	1787556	2	1347	inorganic	correct	1789212	1	648	1787556	1792395	1	649	1790256	2	1360	1793794	1	650	1792956	1797326	1	651	1795656	2	2260	inorganic	correct	1799609	1	652	1798356	1801975	1	653	1801056	3	325	1802325	1	653	1801056	mak_03979.png	mak_Socken.png	mak_Rucksack.png	ok
63062	07/20/2021 09:43:41	1	88	37966	1805507	1	654	1803756	1807340	1	655	1806456	2	1045	inorganic	correct	1808406	1	655	1806456	1811472	1	656	1809156	4	391	1811888	1	657	1811856	1814920	1	658	1814556	2	951	inorganic	correct	1815903	1	658	1814556	1818553	1	659	1817256	4	1684	1820269	1	660	1819955	mae_36426.png	mae_Taschenrechner.png	mae_Schach.png	ok
63062	07/20/2021 09:44:03	1	89	37966	1823184	1	661	1822656	1824817	1	661	1822656	3	1963	organic	correct	1826816	1	662	1825356	1829649	1	663	1828055	4	919	1830599	1	663	1828055	1834481	1	665	1833456	2	582	organic	correct	1835097	1	665	1833456	1839979	1	667	1838856	4	2005	1842028	1	668	1841556	mog_03277.png	mog_Fledermaus.png	mog_Pilz.png	ok
63062	07/20/2021 09:44:24	1	90	37966	1844894	1	669	1844255	1846776	1	669	1844255	2	1483	organic	incorrect	1848293	1	670	1846956	1851991	1	671	1849656	2	1377	1853391	1	672	1852355	1857106	1	673	1855056	3	1600	organic	correct	1858739	1	673	1855056	1860988	1	674	1860455	2	875	1861888	1	674	1860455	mob_22833.png	mob_Kiwi.png	mob_Igel.png	ok
63062	07/20/2021 09:44:45	1	91	37966	1866220	1	676	1865855	1868103	1	676	1865855	3	710	organic	correct	1868836	1	677	1868555	1872968	1	678	1871256	4	1211	1874200	1	679	1873955	1878149	1	680	1876655	2	1301	organic	correct	1879482	1	681	1879356	1881781	1	681	1879356	4	453	1882264	1	682	1882055	mos_23223.png	mos_Eintagsfliege.png	mos_Traube.png	ok
63062	07/20/2021 09:45:06	1	92	37966	1886680	1	683	1884755	1888746	1	684	1887456	3	1841	inorganic	incorrect	1890612	1	685	1890155	1893111	1	686	1892855	2	763	1893927	1	686	1892855	1898042	1	687	1895556	3	779	inorganic	correct	1898842	1	688	1898255	1902558	1	689	1900955	4	667	1903257	1	689	1900955	far_06518.png	far_Giesskanne.png	far_Heissluftballon.png	ok
63062	07/20/2021 09:45:28	1	93	37966	1907839	1	691	1906355	1911205	1	692	1909055	3	401	organic	correct	1911638	1	692	1909055	1915903	1	694	1914455	4	744	1916669	1	694	1914455	1919419	1	695	1917155	3	1372	organic	correct	1920818	1	696	1919855	1924367	1	697	1922555	4	470	1924867	1	697	1922555	fot_06092.png	fot_Taube.png	fot_Salat.png	ok
63062	07/20/2021 09:45:46	1	94	37966	1929482	1	699	1927955	1932314	1	700	1930655	3	281	organic	correct	1932631	1	700	1930655	1935713	1	701	1933355	4	699	1936446	1	702	1936055	1939428	1	703	1938755	3	591	organic	correct	1940045	1	703	1938755	1943944	1	704	1941455	4	510	1944493	1	705	1944155	fov_15193.png	fov_Zucchini.png	fov_Fisch.png	ok
63062	07/20/2021 09:46:08	1	95	37966	1947809	1	706	1946855	1951291	1	707	1949555	3	683	inorganic	incorrect	1952008	1	707	1949555	1955990	1	709	1954955	4	1108	1957123	1	709	1954955	1960621	1	711	1960355	2	1256	inorganic	correct	1961904	1	711	1960355	1964920	1	712	1963055	4	463	1965420	1	712	1963055	map_49576.png	map_Globus.png	map_Pfeife.png	ok
63062	07/20/2021 09:46:31	1	96	37966	1970218	1	714	1968455	1973167	1	715	1971155	2	335	organic	incorrect	1973534	1	715	1971155	1977832	1	717	1976555	2	1110	1978965	1	717	1976555	1982281	1	719	1981954	2	2013	organic	incorrect	1984330	1	719	1981954	1987329	1	720	1984655	2	1216	1988579	1	721	1987355	foi_05187.png	foi_Apfelkuchen.png	foi_Pflanze.png	ok
