ID	DateTime	Run	Delayed_Retrieval_Trial	First_Pulse_Time	FaceRecog_OnsetTime	FaceRecog_OnsetTimeUncertainty	FaceRecog_fMRI_Pulse	FaceRecog_fMRI_PulseTime	Assoc_Retrieval_OnsetTime	Assoc_Retrieval_OnsetTimeUncertainty	Assoc_Retrieval_fMRI_Pulse	Assoc_Retrieval_fMRI_PulseTime	Assoc_Retrieval_Pressed_Button	Assoc_Retrieval_RT	Assoc_Retrieval_Response_Category	Assoc_Retrieval_Accuracy	Assoc_Retrieval_Feedback_OnsetTime	Assoc_Retrieval_Feedback_OnsetTimeUncertainty	Assoc_Retrieval_Feedback_fMRI_Pulse	Assoc_Retrieval_Feedback_fMRI_PulseTime	Retrieval_consc_Rating_OnsetTime	Retrieval_consc_Rating_OnsetTimeUncertainty	Retrieval_consc_Rating_fMRI_Pulse	Retrieval_consc_Rating_fMRI_PulseTime	Retrieval_consc_Rating_Pressed_Button	Retrieval_consc_Rating_RT	Retrieval_consc_Rating_Feedback_OnsetTime	Retrieval_consc_Rating_Feedback_OnsetTimeUncertainty	Retrieval_consc_Rating_Feedback_fMRI_Pulse	Retrieval_consc_Rating_Feedback_fMRI_PulseTime	ForcedChoice_OnsetTime	ForcedChoice_OnsetTimeUncertainty	ForcedChoice_fMRI_Pulse	ForcedChoice_fMRI_PulseTime	ForcedChoice_Pressed_Button	ForcedChoice_RT	ForcedChoice_Response_Category	ForcedChoice_Accuracy	ForcedChoice_Feedback_OnsetTime	ForcedChoice_Feedback_OnsetTimeUncertainty	ForcedChoice_Feedback_fMRI_Pulse	ForcedChoice_Feedback_fMRI_PulseTime	Recognition_consc_Rating_OnsetTime	Recognition_consc_Rating_OnsetTimeUncertainty	Recognition_consc_Rating_fMRI_Pulse	Recognition_consc_Rating_fMRI_PulseTime	Recognition_consc_Rating_Pressed_Button	Recognition_consc_Rating_RT	Recognition_consc_Rating_Feedback_OnsetTime	Recognition_consc_Rating_Feedback_OnsetTimeUncertainty	Recognition_consc_Rating_Feedback_fMRI_Pulse	Recognition_consc_Rating_Feedback_fMRI_PulseTime	Presented_Person	Presented_Target	Presented_Lure	TrialStatus
63071	07/14/2021 16:22:50	1	1	53819	64994	1	6	64416	67693	1	7	66539	2	1815	organic	incorrect	69543	1	8	68659	71792	1	9	70779	3	381	72208	1	9	70779	75657	1	11	75019	2	2295	organic	correct	77973	1	12	77139	81055	1	13	79259	4	406	81489	1	14	81379	moe_02012.png	moe_Pommes.png	moe_Waschbaer.png	ok
63071	07/14/2021 16:23:10	1	2	53819	84538	1	15	83499	86953	1	16	85618	3	1329	organic	correct	88320	1	17	87739	90752	1	18	89859	2	1482	92268	1	19	91979	95967	1	20	94099	2	2114	organic	correct	98116	1	21	96219	99682	1	22	98339	4	781	100499	1	23	100459	mos_20953.png	mos_Eintagsfliege.png	mos_Traube.png	ok
63071	07/14/2021 16:23:27	1	3	53819	104631	1	24	102579	106763	1	25	104699	2	672	organic	incorrect	107463	1	26	106819	110296	1	27	108938	2	717	111062	1	27	108938	114194	1	29	113179	2	2231	organic	correct	116460	1	30	115299	118226	1	31	117418	3	328	118576	1	31	117418	foc_02157.png	foc_Brombeere.png	foc_Eule.png	ok
63071	07/14/2021 16:23:48	1	4	53819	121742	1	33	121659	124324	1	34	123779	2	554	inorganic	correct	124907	1	34	123779	129489	1	36	128019	2	1040	130555	1	37	130139	134154	1	38	132258	2	2600	inorganic	correct	136787	1	40	136499	138803	1	41	138619	4	482	139319	1	41	138619	fan_17286.png	fan_Lampe.png	fan_Klavier.png	ok
63071	07/14/2021 16:24:08	1	5	53819	143284	1	43	142859	146800	1	44	144979	3	726	inorganic	incorrect	147550	1	45	147098	150948	1	46	149218	2	587	151565	1	47	151339	155097	1	48	153459	0	0	inorganic	miss	155097	1	50	157698	159029	1	50	157698	2	282	159362	1	50	157698	mai_06530.png	mai_Auto.png	mai_Gewehr.png	ok
63071	07/14/2021 16:24:28	1	6	53819	162445	1	52	161939	165027	1	53	164058	3	2250	inorganic	incorrect	167310	1	54	166179	169242	1	55	168299	2	421	169692	1	55	168299	174407	1	57	172538	3	2513	inorganic	correct	176956	1	59	176779	178056	1	59	176779	4	521	178606	1	59	176779	fat_12032.png	fat_Einkaufswagen.png	fat_Kleiderbuegel.png	ok
63071	07/14/2021 16:24:49	1	7	53819	182821	1	61	181018	185137	1	62	183139	3	1427	organic	correct	186586	1	63	185258	189969	1	65	189498	4	297	190302	1	65	189498	194667	1	67	193738	2	537	organic	correct	195234	1	67	193738	200049	1	69	197978	4	267	200348	1	70	200099	fou_17118.png	fou_Schmetterling.png	fou_Feige.png	ok
63071	07/14/2021 16:25:08	1	8	53819	203997	1	71	202218	206196	1	72	204338	2	276	organic	incorrect	206496	1	73	206459	210478	1	74	208578	3	725	211245	1	75	210698	214360	1	76	212818	2	2941	organic	correct	217326	1	78	217058	217959	1	78	217058	4	513	218509	1	78	217058	mot_69374.png	mot_Bison.png	mot_Hotdog.png	ok
63071	07/14/2021 16:25:30	1	9	53819	222441	1	80	221298	225640	1	82	225538	3	229	organic	correct	225906	1	82	225538	229772	1	83	227658	2	434	230238	1	84	229778	235003	1	86	234018	3	2061	organic	incorrect	237086	1	87	236138	239835	1	88	238258	3	256	240118	1	88	238258	foe_08236.png	foe_Tannenzapfen.png	foe_Adler.png	ok
63071	07/14/2021 16:25:52	1	10	53819	245100	1	91	244618	248199	1	92	246738	3	982	organic	correct	249215	1	93	248858	253514	1	95	253098	2	926	254463	1	95	253098	256896	1	96	255218	2	2479	organic	incorrect	259428	1	97	257338	261611	1	98	259458	2	505	262144	1	99	261577	foi_03389.png	foi_Pflanze.png	foi_Apfelkuchen.png	ok
63071	07/14/2021 16:26:13	1	11	53819	266776	1	101	265818	270275	1	103	270057	2	707	inorganic	correct	271008	1	103	270057	273724	1	104	272178	2	708	274457	1	105	274298	278889	1	107	278537	2	1805	inorganic	correct	280721	1	108	280658	282771	1	108	280658	3	2322	285120	1	110	284897	faj_07783.png	faj_Parfuem.png	faj_Schuh.png	ok
63071	07/14/2021 16:26:34	1	12	53819	287736	1	111	287018	290001	1	112	289138	3	299	organic	correct	290335	1	112	289138	293950	1	114	293377	2	1143	295116	1	114	293377	298432	1	116	297618	3	1867	organic	correct	300331	1	117	299738	303630	1	118	301857	4	325	303980	1	118	301857	foj_08220.png	foj_Waffel.png	foj_Rose.png	ok
63071	07/14/2021 16:26:55	1	13	53819	308728	1	121	308217	312094	1	122	310337	3	311	organic	correct	312427	1	122	310337	317026	1	125	316697	4	221	317276	1	125	316697	321774	1	127	320938	3	742	organic	correct	322540	1	127	320938	325939	1	129	325177	4	663	326639	1	129	325177	for_15187.png	for_Mandel.png	for_Seehund.png	ok
63071	07/14/2021 16:27:16	1	14	53819	329771	1	131	329418	332720	1	132	331537	2	349	inorganic	correct	333104	1	132	331537	336436	1	134	335778	2	1520	337985	1	135	337897	341201	1	136	340017	3	2318	inorganic	incorrect	343550	1	137	342137	345649	1	138	344258	2	389	346066	1	138	344258	maw_04767.png	maw_Schlauchboot.png	maw_Pingpongschlaeger.png	ok
63071	07/14/2021 16:27:34	1	15	53819	350464	1	140	348497	353097	1	142	352738	2	430	organic	incorrect	353563	1	142	352738	356996	1	143	354857	4	254	357295	1	144	356977	360878	1	145	359097	3	1674	organic	correct	362577	1	146	361217	364510	1	147	363337	4	566	365109	1	147	363337	mou_01862.png	mou_Kraehe.png	mou_Croissant.png	ok
63071	07/14/2021 16:27:52	1	16	53819	368708	1	149	367578	370458	1	150	369697	2	2263	organic	incorrect	372757	1	151	371817	374506	1	152	373937	2	556	375089	1	152	373937	378188	1	153	376058	2	2140	organic	correct	380354	1	155	380297	381937	1	155	380297	4	447	382420	1	155	380297	mol_07679.png	mol_Schimpanse.png	mol_Pizza.png	ok
63071	07/14/2021 16:28:10	1	17	53819	387202	1	158	386657	388985	1	159	388777	3	1918	organic	correct	390934	1	160	390897	392683	1	160	390897	4	365	393083	1	161	393017	396249	1	162	395137	2	946	organic	correct	397215	1	162	395137	401181	1	164	399377	4	337	401547	1	165	401497	moj_11821.png	moj_Walnuss.png	moj_Blatt.png	ok
63071	07/14/2021 16:28:31	1	18	53819	404929	1	166	403617	406829	1	167	405737	3	709	inorganic	incorrect	407578	1	167	405737	412177	1	170	412097	2	292	412493	1	170	412097	416475	1	172	416337	3	1902	inorganic	incorrect	418408	1	172	416337	420741	1	174	420577	3	942	421707	1	174	420577	fag_06539.png	fag_Portemonnaie.png	fag_Geschenk.png	ok
63071	07/14/2021 16:28:49	1	19	53819	425656	1	176	424817	428005	1	177	426937	3	1334	inorganic	incorrect	429371	1	178	429057	431954	1	179	431176	2	1985	433969	1	180	433297	436185	1	181	435417	3	1808	inorganic	incorrect	438018	1	182	437536	440117	1	183	439657	4	442	440584	1	183	439657	fai_07494.png	fai_Kommode.png	fai_Foehn.png	ok
63071	07/14/2021 16:29:09	1	20	53819	443616	1	184	441777	445815	1	185	443897	2	673	inorganic	correct	446515	1	186	446016	450414	1	188	450257	3	1422	451863	1	188	450257	455279	1	190	454496	2	796	inorganic	correct	456112	1	190	454496	459727	1	192	458737	4	158	459911	1	192	458737	fac_02146.png	fac_Haarbuerste.png	fac_Ohrring.png	ok
63071	07/14/2021 16:29:30	1	21	53819	463943	1	194	462976	466975	1	195	465097	3	1206	organic	correct	468208	1	196	467217	470740	1	197	469336	2	395	471157	1	197	469336	474306	1	199	473577	3	1516	organic	correct	475855	1	200	475696	479621	1	201	477816	3	320	479971	1	202	479937	foa_00207.png	foa_Aubergine.png	foa_Marienkaefer.png	ok
63071	07/14/2021 16:29:48	1	22	53819	484469	1	204	484176	487768	1	205	486296	2	333	inorganic	correct	488135	1	205	486296	491717	1	207	490537	2	857	492600	1	207	490537	495532	1	209	494776	3	1694	inorganic	correct	497248	1	210	496897	499497	1	211	499016	3	746	500280	1	211	499016	mas_41366.png	mas_Tisch.png	mas_Bueroklammer.png	ok
63071	07/14/2021 16:30:08	1	23	53819	503163	1	212	501136	505629	1	214	505377	3	457	inorganic	incorrect	506128	1	214	505377	509127	1	215	507496	3	1599	510760	1	216	509616	512743	1	217	511737	3	2067	inorganic	correct	514842	1	218	513856	517974	1	219	515976	4	368	518374	1	220	518096	mak_00987.png	mak_Socken.png	mak_Rucksack.png	ok
63071	07/14/2021 16:30:26	1	24	53819	522440	1	222	522336	524706	1	223	524456	2	1564	organic	incorrect	526305	1	223	524456	528504	1	224	526576	2	1189	529720	1	225	528697	532353	1	226	530816	3	2150	organic	incorrect	534536	1	227	532936	537118	1	228	535056	2	303	537451	1	229	537176	moh_06446.png	moh_Muecke.png	moh_Birne.png	ok
63071	07/14/2021 16:30:48	1	25	53819	541300	1	230	539296	544449	1	232	543536	2	900	inorganic	correct	545382	1	232	543536	549181	1	234	547776	2	825	550030	1	235	549896	554229	1	237	554136	2	1942	inorganic	incorrect	556212	1	237	554136	558611	1	239	558376	3	639	559277	1	239	558376	mac_59169.png	mac_Medaille.png	mac_Dartpfeil.png	ok
63071	07/14/2021 16:31:06	1	26	53819	562543	1	240	560496	565425	1	242	564736	2	1892	inorganic	correct	567341	1	243	566856	569024	1	244	568976	2	1398	570457	1	244	568976	572456	1	245	571096	3	2305	inorganic	correct	574789	1	246	573216	576405	1	247	575335	2	281	576721	1	247	575335	fab_06018.png	fab_Kinderwagen.png	fab_Staubsauger.png	ok
63071	07/14/2021 16:31:25	1	27	53819	580553	1	249	579576	582886	1	250	581696	3	927	organic	correct	583836	1	250	581696	587451	1	252	585936	2	504	587984	1	252	585936	591300	1	254	590175	3	1647	organic	correct	592982	1	255	592296	595732	1	256	594416	3	355	596115	1	256	594416	fok_09378.png	fok_Kaenguruh.png	fok_Palme.png	ok
63071	07/14/2021 16:31:42	1	28	53819	599547	1	258	598655	601829	1	259	600776	2	461	inorganic	correct	602313	1	259	600776	605545	1	261	605016	2	388	605978	1	261	605016	609144	1	262	607135	3	1399	inorganic	correct	610576	1	263	609256	613176	1	264	611376	4	368	613575	1	265	613495	fax_14883.png	fax_Klebeband.png	fax_Fahrrad.png	ok
63071	07/14/2021 16:32:01	1	29	53819	616891	1	266	615615	619923	1	268	619856	2	250	inorganic	correct	620207	1	268	619856	624955	1	270	624095	4	334	625322	1	270	624095	629004	1	272	628335	3	809	inorganic	correct	629837	1	272	628335	632619	1	274	632576	4	370	633019	1	274	632576	maj_01545.png	maj_Computermaus.png	maj_Krawatte.png	ok
63071	07/14/2021 16:32:20	1	30	53819	636201	1	275	634696	637917	1	276	636815	2	1670	organic	incorrect	639617	1	277	638935	641733	1	278	641056	2	377	642132	1	278	641056	645948	1	280	645295	2	2325	organic	correct	648297	1	281	647415	650096	1	282	649536	2	266	650396	1	282	649536	mof_02408.png	mof_Hahn.png	mof_Spaghetti.png	ok
63071	07/14/2021 16:32:42	1	31	53819	655211	1	284	653775	658344	1	286	658016	3	1224	inorganic	incorrect	659593	1	286	658016	662509	1	288	662255	2	896	663442	1	288	662255	667574	1	290	666496	3	2464	inorganic	correct	670073	1	291	668615	673089	1	293	672856	3	448	673572	1	293	672856	map_41499.png	map_Globus.png	map_Pfeife.png	ok
63071	07/14/2021 16:33:01	1	32	53819	676904	1	294	674975	679103	1	295	677095	2	1586	organic	incorrect	680719	1	296	679215	682802	1	297	681336	0	0	682802	1	298	683455	686284	1	299	685575	3	1749	organic	incorrect	688067	1	300	687695	691016	1	301	689815	2	226	691266	1	301	689815	fot_00797.png	fot_Taube.png	fot_Salat.png	ok
63071	07/14/2021 16:33:21	1	33	53819	696248	1	304	696175	698097	1	304	696175	2	704	inorganic	correct	698830	1	305	698295	702612	1	307	702535	4	220	702879	1	307	702535	707527	1	309	706775	2	523	inorganic	correct	708077	1	309	706775	711359	1	311	711015	4	678	712076	1	311	711015	mau_49693.png	mau_Leiter.png	mau_Wasserventil.png	ok
63071	07/14/2021 16:33:42	1	34	53819	716407	1	313	715255	718723	1	314	717375	2	1703	inorganic	correct	720456	1	315	719495	723638	1	316	721615	2	733	724405	1	317	723735	728337	1	319	727974	3	2219	inorganic	correct	730586	1	320	730095	733252	1	321	732215	4	378	733652	1	321	732215	far_00736.png	far_Heissluftballon.png	far_Giesskanne.png	ok
63071	07/14/2021 16:34:04	1	35	53819	737184	1	323	736454	740333	1	324	738575	2	1043	organic	incorrect	741399	1	325	740695	744165	1	326	742814	4	202	744398	1	326	742814	749396	1	329	749175	3	1849	organic	correct	751296	1	329	749175	754611	1	331	753415	4	247	754911	1	331	753415	mom_59361.png	mom_Ei.png	mom_Loewe.png	ok
63071	07/14/2021 16:34:21	1	36	53819	758493	1	333	757655	760976	1	334	759774	3	262	organic	correct	761259	1	334	759774	764474	1	336	764015	4	736	765241	1	336	764015	768806	1	338	768254	2	597	organic	correct	769439	1	338	768254	772422	1	339	770375	4	396	772855	1	340	772495	mob_00760.png	mob_Igel.png	mob_Kiwi.png	ok
63071	07/14/2021 16:34:40	1	37	53819	775787	1	341	774614	777787	1	342	776734	3	635	organic	correct	778453	1	342	776734	781535	1	344	780975	4	216	781785	1	344	780975	785567	1	346	785215	3	643	organic	correct	786234	1	346	785215	790882	1	348	789454	4	282	791199	1	348	789454	mog_03090.png	mog_Pilz.png	mog_Fledermaus.png	ok
63071	07/14/2021 16:35:00	1	38	53819	795064	1	350	793695	797930	1	351	795815	2	300	inorganic	correct	798263	1	352	797934	802078	1	353	800054	3	1122	803245	1	354	802175	807210	1	356	806414	2	1736	inorganic	incorrect	808976	1	357	808534	810892	1	358	810655	3	680	811609	1	358	810655	mao_11634.png	mao_Kegel.png	mao_Stempel.png	ok
63071	07/14/2021 16:35:20	1	39	53819	815157	1	360	814894	818506	1	361	817014	2	304	inorganic	correct	818839	1	361	817014	822988	1	363	821254	4	287	823305	1	363	821254	827020	1	365	825495	2	794	inorganic	correct	827836	1	366	827614	831102	1	367	829734	4	625	831752	1	367	829734	mat_23275.png	mat_Helm.png	mat_Feuerzeug.png	ok
63071	07/14/2021 16:35:41	1	40	53819	834517	1	369	833975	837533	1	370	836094	2	315	organic	incorrect	837883	1	370	836094	841548	1	372	840334	2	1503	843081	1	373	842454	845547	1	374	844574	2	2100	organic	correct	847680	1	375	846694	851112	1	377	850934	3	225	851378	1	377	850934	foq_16799.png	foq_Fenchel.png	foq_Pinguin.png	ok
63071	07/14/2021 16:36:03	1	41	53819	855694	1	379	855174	858176	1	380	857294	2	931	inorganic	correct	859142	1	380	857294	863508	1	382	861534	4	274	863808	1	383	863654	868706	1	385	867894	2	770	inorganic	correct	869506	1	385	867894	872821	1	387	872134	4	1122	873971	1	387	872134	mae_01010.png	mae_Schach.png	mae_Taschenrechner.png	ok
63071	07/14/2021 16:36:22	1	42	53819	877986	1	388	876374	880769	1	390	880614	2	770	organic	incorrect	881568	1	390	880614	884134	1	391	882734	2	1376	885534	1	392	884854	887766	1	393	886974	2	2350	organic	correct	890149	1	394	889093	892764	1	395	891214	2	262	893064	1	395	891214	mon_65798.png	mon_Fuchs.png	mon_Kartoffel.png	ok
63071	07/14/2021 16:36:40	1	43	53819	896713	1	397	895454	898346	1	398	897573	3	1639	inorganic	incorrect	900029	1	399	899694	901845	1	399	899694	2	936	902828	1	400	901814	905260	1	401	903933	3	1923	inorganic	incorrect	907210	1	402	906054	910359	1	404	910294	2	314	910708	1	404	910294	fal_07906.png	fal_Buegeleisen.png	fal_Korb.png	ok
63071	07/14/2021 16:37:01	1	44	53819	915207	1	406	914534	918472	1	407	916654	3	567	inorganic	incorrect	919072	1	408	918773	922488	1	409	920893	3	241	922754	1	409	920893	927353	1	412	927253	3	2430	inorganic	incorrect	929819	1	413	929373	932418	1	414	931494	2	259	932701	1	414	931494	mal_04470.png	mal_Kugelschreiber.png	mal_Drucker.png	ok
63071	07/14/2021 16:37:20	1	45	53819	936150	1	416	935733	937916	1	417	937853	3	484	inorganic	incorrect	938432	1	417	937853	941331	1	418	939974	3	1133	942498	1	419	942093	946563	1	421	946334	2	2067	inorganic	correct	948679	1	422	948454	951178	1	423	950573	4	211	951428	1	423	950573	faw_14215.png	faw_Hufeisen.png	faw_Kuechenmaschine.png	ok
63071	07/14/2021 16:37:40	1	46	53819	954893	1	425	954814	957443	1	426	956934	2	771	organic	incorrect	958242	1	426	956934	962708	1	428	961173	3	232	962974	1	428	961173	966173	1	430	965413	3	2738	organic	correct	968939	1	431	967533	971355	1	432	969653	4	247	971638	1	432	969653	fop_00621.png	fop_Mango.png	fop_Koala.png	ok
63071	07/14/2021 16:37:58	1	47	53819	975187	1	434	973893	977069	1	435	976013	2	1844	inorganic	correct	978935	1	436	978133	982101	1	437	980253	2	769	982901	1	438	982373	986100	1	439	984493	3	2083	inorganic	correct	988216	1	440	986614	989715	1	441	988733	2	1087	990831	1	441	988733	fap_16329.png	fap_Knopf.png	fap_Kissen.png	ok
63071	07/14/2021 16:38:18	1	48	53819	993081	1	443	992973	995830	1	444	995093	3	376	organic	correct	996230	1	444	995093	1000112	1	446	999333	4	683	1000845	1	446	999333	1003627	1	448	1003573	3	1405	organic	correct	1005060	1	448	1003573	1007759	1	449	1005693	4	678	1008475	1	450	1007813	fov_15046.png	fov_Zucchini.png	fov_Fisch.png	ok
63071	07/14/2021 16:38:37	1	49	53819	1012507	1	452	1012053	1015273	1	453	1014173	3	627	inorganic	incorrect	1015923	1	453	1014173	1019105	1	455	1018413	2	847	1019988	1	455	1018413	1022837	1	457	1022653	3	2366	inorganic	correct	1025236	1	458	1024773	1028252	1	459	1026893	2	328	1028619	1	459	1026893	fan_18894.png	fan_Klavier.png	fan_Lampe.png	ok
63071	07/14/2021 16:38:58	1	50	53819	1031751	1	461	1031133	1034750	1	462	1033253	3	1049	organic	correct	1035833	1	463	1035373	1039648	1	465	1039613	3	234	1039915	1	465	1039613	1043097	1	466	1041732	2	1845	organic	correct	1044963	1	467	1043853	1047695	1	468	1045973	4	233	1047979	1	468	1045973	moe_23630.png	moe_Waschbaer.png	moe_Pommes.png	ok
63071	07/14/2021 16:39:18	1	51	53819	1052710	1	471	1052333	1055509	1	472	1054453	2	455	organic	incorrect	1055993	1	472	1054453	1059358	1	474	1058693	4	1105	1060491	1	474	1058693	1064506	1	476	1062933	3	2543	organic	incorrect	1067072	1	477	1065052	1068905	1	478	1067173	4	621	1069555	1	479	1069293	foc_02664.png	foc_Eule.png	foc_Brombeere.png	ok
63071	07/14/2021 16:39:38	1	52	53819	1072820	1	480	1071413	1075036	1	481	1073532	3	226	organic	correct	1075286	1	481	1073532	1079301	1	483	1077773	2	531	1079868	1	483	1077773	1083583	1	485	1082012	2	1530	organic	correct	1085149	1	486	1084133	1088132	1	487	1086253	4	322	1088482	1	488	1088372	mos_23223.png	mos_Traube.png	mos_Eintagsfliege.png	ok
63071	07/14/2021 16:39:59	1	53	53819	1092497	1	489	1090492	1095196	1	491	1094732	2	265	inorganic	correct	1095496	1	491	1094732	1099011	1	492	1096852	4	344	1099395	1	493	1098973	1103210	1	494	1101093	3	432	inorganic	correct	1103677	1	495	1103212	1108741	1	497	1107453	4	604	1109375	1	497	1107453	mai_23761.png	mai_Gewehr.png	mai_Auto.png	ok
63071	07/14/2021 16:40:19	1	54	53819	1113607	1	499	1111692	1116755	1	501	1115933	2	213	inorganic	correct	1117005	1	501	1115933	1121770	1	503	1120172	2	309	1122104	1	503	1120172	1126752	1	506	1126532	3	1565	inorganic	correct	1128352	1	506	1126532	1130667	1	507	1128652	4	429	1131134	1	508	1130772	fat_14140.png	fat_Kleiderbuegel.png	fat_Einkaufswagen.png	ok
63071	07/14/2021 16:40:42	1	55	53819	1134266	1	509	1132892	1137615	1	511	1137132	3	594	organic	correct	1138232	1	511	1137132	1142047	1	513	1141372	2	579	1142663	1	513	1141372	1146962	1	515	1145612	3	1753	organic	correct	1148761	1	516	1147733	1151294	1	517	1149852	4	341	1151660	1	517	1149852	mot_69770.png	mot_Hotdog.png	mot_Bison.png	ok
63071	07/14/2021 16:41:01	1	56	53819	1156425	1	520	1156212	1158275	1	520	1156212	3	2182	organic	correct	1160491	1	522	1160452	1161940	1	522	1160452	3	761	1162723	1	523	1162572	1166555	1	524	1164692	3	1261	organic	correct	1167838	1	525	1166812	1171787	1	527	1171051	4	298	1172120	1	527	1171051	fou_18966.png	fou_Feige.png	fou_Schmetterling.png	ok
63071	07/14/2021 16:41:21	1	57	53819	1175952	1	529	1175292	1177635	1	530	1177412	3	641	organic	correct	1178301	1	530	1177412	1182633	1	532	1181652	2	234	1182900	1	532	1181652	1187698	1	534	1185892	3	1206	organic	correct	1188931	1	535	1188012	1191530	1	536	1190132	3	1154	1192713	1	537	1192252	foj_08937.png	foj_Rose.png	foj_Waffel.png	ok
63071	07/14/2021 16:41:41	1	58	53819	1195795	1	538	1194371	1197978	1	539	1196492	2	1139	organic	incorrect	1199161	1	540	1198612	1201360	1	541	1200732	2	1129	1202526	1	541	1200732	1206625	1	543	1204972	3	2483	organic	correct	1209141	1	544	1207092	1211040	1	545	1209212	4	1066	1212140	1	546	1211332	foe_08514.png	foe_Adler.png	foe_Tannenzapfen.png	ok
63071	07/14/2021 16:42:03	1	59	53819	1216372	1	548	1215572	1218738	1	549	1217691	2	539	inorganic	correct	1219304	1	549	1217691	1223136	1	551	1221932	3	246	1223419	1	551	1221932	1228168	1	553	1226171	2	1645	inorganic	correct	1229834	1	554	1228292	1232516	1	555	1230412	2	718	1233266	1	556	1232531	faj_07849.png	faj_Schuh.png	faj_Parfuem.png	ok
63071	07/14/2021 16:42:22	1	60	53819	1237481	1	558	1236772	1240347	1	559	1238892	2	273	organic	incorrect	1240647	1	559	1238892	1243829	1	561	1243131	2	1290	1245162	1	561	1243131	1248778	1	563	1247372	2	1730	organic	correct	1250544	1	564	1249491	1253459	1	565	1251612	3	1277	1254759	1	566	1253732	foi_05187.png	foi_Apfelkuchen.png	foi_Pflanze.png	ok
63071	07/14/2021 16:42:42	1	61	53819	1257125	1	567	1255851	1258874	1	568	1257971	3	1201	organic	correct	1260107	1	568	1257971	1263373	1	570	1262212	4	249	1263656	1	570	1262212	1268288	1	572	1266451	3	758	organic	correct	1269071	1	573	1268572	1272203	1	574	1270691	4	741	1272969	1	575	1272811	mou_06524.png	mou_Croissant.png	mou_Kraehe.png	ok
63071	07/14/2021 16:43:02	1	62	53819	1276968	1	576	1274931	1280367	1	578	1279171	2	512	inorganic	correct	1280900	1	578	1279171	1284899	1	580	1283411	2	349	1285282	1	580	1283411	1289514	1	582	1287651	3	1297	inorganic	correct	1290847	1	583	1289771	1293962	1	584	1291892	4	309	1294312	1	585	1294011	maw_22459.png	maw_Pingpongschlaeger.png	maw_Schlauchboot.png	ok
63071	07/14/2021 16:43:22	1	63	53819	1297428	1	586	1296131	1300893	1	588	1300372	3	247	organic	correct	1301176	1	588	1300372	1304409	1	589	1302491	2	1245	1305692	1	590	1304611	1308874	1	591	1306731	2	2622	organic	correct	1311523	1	593	1310971	1313022	1	593	1310971	3	735	1313789	1	594	1313091	mol_11363.png	mol_Pizza.png	mol_Schimpanse.png	ok
63071	07/14/2021 16:43:42	1	64	53819	1316538	1	595	1315211	1318437	1	596	1317331	2	2258	organic	incorrect	1320720	1	597	1319451	1323319	1	598	1321571	2	1261	1324619	1	599	1323691	1327618	1	600	1325811	2	1802	organic	correct	1329450	1	601	1327931	1331766	1	602	1330051	4	738	1332533	1	603	1332171	for_15880.png	for_Seehund.png	for_Mandel.png	ok
63071	07/14/2021 16:44:00	1	65	53819	1336581	1	605	1336411	1338764	1	606	1338531	2	1575	inorganic	correct	1340363	1	606	1338531	1342229	1	607	1340651	2	351	1342612	1	607	1340651	1346578	1	609	1344891	2	1744	inorganic	correct	1348344	1	610	1347010	1350710	1	611	1349131	4	300	1351043	1	611	1349131	fag_06551.png	fag_Geschenk.png	fag_Portemonnaie.png	ok
63071	07/14/2021 16:44:18	1	66	53819	1355225	1	613	1353371	1357524	1	614	1355490	2	260	inorganic	correct	1357807	1	615	1357611	1361056	1	616	1359731	2	361	1361439	1	616	1359731	1364872	1	618	1363970	2	1668	inorganic	correct	1366571	1	619	1366091	1368904	1	620	1368211	4	1014	1369953	1	620	1368211	fac_02970.png	fac_Ohrring.png	fac_Haarbuerste.png	ok
63071	07/14/2021 16:44:38	1	67	53819	1372652	1	622	1372450	1374702	1	623	1374571	2	1855	organic	incorrect	1376584	1	623	1374571	1379717	1	625	1378810	3	283	1380033	1	625	1378810	1384232	1	627	1383051	3	1268	organic	correct	1385531	1	628	1385170	1388864	1	629	1387290	4	272	1389163	1	629	1387290	moj_11860.png	moj_Blatt.png	moj_Walnuss.png	ok
63071	07/14/2021 16:45:00	1	68	53819	1393362	1	631	1391531	1395878	1	633	1395770	2	1115	inorganic	correct	1397027	1	633	1395770	1400776	1	635	1400011	2	1143	1401942	1	635	1400011	1405708	1	637	1404250	3	2148	inorganic	incorrect	1407890	1	638	1406371	1411173	1	640	1410610	2	272	1411473	1	640	1410610	fai_07637.png	fai_Foehn.png	fai_Kommode.png	ok
63071	07/14/2021 16:45:22	1	69	53819	1415188	1	642	1414851	1417404	1	643	1416970	2	603	inorganic	correct	1418037	1	643	1416970	1422685	1	645	1421211	4	370	1423085	1	645	1421211	1426967	1	647	1425450	3	1308	inorganic	correct	1428300	1	648	1427570	1432166	1	650	1431810	4	237	1432432	1	650	1431810	mak_03979.png	mak_Rucksack.png	mak_Socken.png	ok
63071	07/14/2021 16:45:40	1	70	53819	1436681	1	652	1436050	1439263	1	653	1438171	2	580	inorganic	correct	1439880	1	653	1438171	1443162	1	655	1442410	2	339	1443545	1	655	1442410	1446644	1	656	1444530	2	1645	inorganic	correct	1448310	1	657	1446650	1451342	1	659	1450890	4	274	1451642	1	659	1450890	mas_41937.png	mas_Bueroklammer.png	mas_Tisch.png	ok
63071	07/14/2021 16:46:00	1	71	53819	1455174	1	661	1455130	1457774	1	662	1457250	3	1390	organic	correct	1459190	1	662	1457250	1462339	1	664	1461491	3	406	1462772	1	664	1461491	1466254	1	666	1465730	3	2475	organic	correct	1468753	1	667	1467850	1471352	1	668	1469970	4	318	1471702	1	668	1469970	moh_07125.png	moh_Birne.png	moh_Muecke.png	ok
63071	07/14/2021 16:46:20	1	72	53819	1474751	1	670	1474210	1476584	1	671	1476330	2	1794	organic	incorrect	1478400	1	671	1476330	1481582	1	673	1480570	2	756	1482365	1	673	1480570	1486114	1	675	1484809	2	2061	organic	correct	1488197	1	676	1486930	1490779	1	677	1489050	2	317	1491146	1	677	1489050	foa_00426.png	foa_Marienkaefer.png	foa_Aubergine.png	ok
63071	07/14/2021 16:46:40	1	73	53819	1495411	1	679	1493290	1498593	1	681	1497530	3	168	inorganic	incorrect	1498793	1	681	1497530	1502542	1	683	1501770	2	1046	1503625	1	683	1501770	1507040	1	685	1506010	2	2688	inorganic	correct	1509756	1	686	1508129	1511305	1	687	1510250	3	261	1511589	1	687	1510250	mac_59752.png	mac_Dartpfeil.png	mac_Medaille.png	ok
63071	07/14/2021 16:47:01	1	74	53819	1514971	1	689	1514490	1517753	1	690	1516609	3	225	organic	correct	1518003	1	690	1516609	1521785	1	692	1520850	3	846	1522668	1	692	1520850	1526734	1	694	1525089	2	2454	organic	incorrect	1529216	1	695	1527210	1530599	1	696	1529330	4	1129	1531765	1	697	1531449	fok_09860.png	fok_Palme.png	fok_Kaenguruh.png	ok
63071	07/14/2021 16:47:23	1	75	53819	1535930	1	699	1535690	1539446	1	700	1537810	2	382	inorganic	correct	1539862	1	700	1537810	1544194	1	702	1542050	2	853	1545077	1	703	1544170	1548476	1	705	1548409	2	1238	inorganic	correct	1549742	1	705	1548409	1553358	1	707	1552650	4	261	1553658	1	707	1552650	fax_15310.png	fax_Fahrrad.png	fax_Klebeband.png	ok
63071	07/14/2021 16:47:43	1	76	53819	1557806	1	709	1556889	1560506	1	710	1559010	2	1284	inorganic	correct	1561822	1	711	1561129	1565837	1	713	1565369	2	1032	1566903	1	713	1565369	1569469	1	714	1567490	2	1955	inorganic	incorrect	1571452	1	715	1569609	1574417	1	717	1573850	3	611	1575051	1	717	1573850	fab_06286.png	fab_Staubsauger.png	fab_Kinderwagen.png	ok
63071	07/14/2021 16:48:05	1	77	53819	1578250	1	719	1578089	1581265	1	720	1580209	2	389	inorganic	correct	1581682	1	720	1580209	1585964	1	722	1584449	2	576	1586563	1	722	1584449	1591062	1	725	1590810	3	1516	inorganic	correct	1592628	1	725	1590810	1595610	1	727	1595049	4	634	1596277	1	727	1595049	maj_01546.png	maj_Krawatte.png	maj_Computermaus.png	ok
63071	07/14/2021 16:48:26	1	78	53819	1600275	1	729	1599289	1603391	1	730	1601409	3	1981	organic	correct	1605407	1	731	1603529	1607640	1	732	1605649	2	1083	1608756	1	733	1607769	1611588	1	734	1609889	2	1409	organic	incorrect	1613021	1	735	1612009	1616437	1	737	1616249	3	247	1616720	1	737	1616249	fot_06092.png	fot_Salat.png	fot_Taube.png	ok
63071	07/14/2021 16:48:47	1	79	53819	1621018	1	739	1620489	1623018	1	740	1622609	2	1807	organic	incorrect	1624850	1	741	1624729	1628333	1	742	1626849	2	271	1628632	1	742	1626849	1632381	1	744	1631089	3	2416	organic	correct	1634830	1	745	1633209	1636913	1	746	1635329	2	444	1637380	1	746	1635329	mof_06901.png	mof_Spaghetti.png	mof_Hahn.png	ok
63071	07/14/2021 16:49:07	1	80	53819	1642111	1	749	1641689	1645377	1	750	1643809	2	744	inorganic	correct	1646143	1	751	1645929	1650042	1	752	1648049	2	650	1650725	1	753	1650169	1654524	1	755	1654409	2	1443	inorganic	correct	1655990	1	755	1654409	1658456	1	756	1656529	3	712	1659205	1	757	1658649	map_49576.png	map_Pfeife.png	map_Globus.png	ok
63071	07/14/2021 16:49:28	1	81	53819	1662371	1	758	1660768	1665870	1	760	1665009	3	253	organic	correct	1666153	1	760	1665009	1669319	1	762	1669248	4	2065	1671418	1	763	1671369	1674200	1	764	1673489	2	476	organic	correct	1674700	1	764	1673489	1679499	1	766	1677728	4	382	1679915	1	767	1679849	mob_22833.png	mob_Kiwi.png	mob_Igel.png	ok
63071	07/14/2021 16:49:50	1	82	53819	1682864	1	768	1681969	1684997	1	769	1684088	2	761	inorganic	correct	1685780	1	769	1684088	1689862	1	771	1688329	4	521	1690428	1	771	1688329	1693994	1	773	1692568	3	657	inorganic	correct	1694677	1	773	1692568	1699492	1	776	1698928	4	247	1699775	1	776	1698928	far_06518.png	far_Giesskanne.png	far_Heissluftballon.png	ok
63071	07/14/2021 16:50:12	1	83	53819	1704524	1	778	1703169	1707722	1	780	1707408	3	2179	organic	correct	1709938	1	781	1709528	1711554	1	781	1709528	2	875	1712454	1	782	1711649	1716403	1	784	1715888	2	1661	organic	correct	1718086	1	785	1718008	1721968	1	786	1720129	4	281	1722284	1	787	1722248	mom_59641.png	mom_Loewe.png	mom_Ei.png	ok
63071	07/14/2021 16:50:33	1	84	53819	1727016	1	789	1726489	1729365	1	790	1728609	2	1183	inorganic	correct	1730581	1	790	1728609	1733497	1	792	1732848	2	887	1734413	1	792	1732848	1738495	1	794	1737088	2	1449	inorganic	correct	1739995	1	795	1739208	1743044	1	796	1741328	4	248	1743327	1	796	1741328	mau_58144.png	mau_Wasserventil.png	mau_Leiter.png	ok
63071	07/14/2021 16:50:54	1	85	53819	1748209	1	799	1747688	1751674	1	800	1749808	3	1202	inorganic	incorrect	1752907	1	801	1751928	1756856	1	803	1756168	3	1122	1758005	1	803	1756168	1760221	1	804	1758288	0	0	inorganic	miss	1760221	1	806	1762528	1765203	1	807	1764648	2	563	1765803	1	807	1764648	mao_19000.png	mao_Stempel.png	mao_Kegel.png	ok
63071	07/14/2021 16:51:13	1	86	53819	1768985	1	809	1768888	1771867	1	810	1771008	2	601	inorganic	correct	1772501	1	810	1771008	1775266	1	811	1773128	3	667	1775966	1	812	1775248	1778715	1	813	1777368	2	623	inorganic	correct	1779365	1	813	1777368	1783214	1	815	1781608	4	236	1783480	1	815	1781608	mat_23754.png	mat_Feuerzeug.png	mat_Helm.png	ok
63071	07/14/2021 16:51:32	1	87	53819	1787512	1	817	1785848	1789428	1	818	1787968	2	1633	organic	incorrect	1791111	1	819	1790087	1794277	1	820	1792208	2	728	1795043	1	821	1794328	1798109	1	822	1796448	3	1161	organic	correct	1799291	1	823	1798568	1803223	1	825	1802808	4	340	1803590	1	825	1802808	mog_03277.png	mog_Fledermaus.png	mog_Pilz.png	ok
63071	07/14/2021 16:51:54	1	88	53819	1807255	1	827	1807048	1810571	1	828	1809168	3	1935	organic	correct	1812537	1	829	1811288	1815703	1	831	1815528	2	811	1816536	1	831	1815528	1819251	1	832	1817648	3	2053	organic	correct	1821334	1	833	1819768	1823550	1	834	1821887	3	336	1823916	1	834	1821887	foq_17341.png	foq_Pinguin.png	foq_Fenchel.png	ok
63071	07/14/2021 16:52:14	1	89	53819	1828515	1	837	1828248	1832014	1	838	1830367	2	399	inorganic	correct	1832447	1	838	1830367	1835463	1	840	1834608	2	1375	1836879	1	841	1836727	1840044	1	842	1838847	3	2464	inorganic	correct	1842544	1	843	1840968	1844110	1	844	1843088	2	404	1844543	1	844	1843088	fal_07977.png	fal_Korb.png	fal_Buegeleisen.png	ok
63071	07/14/2021 16:52:35	1	90	53819	1848991	1	846	1847328	1850924	1	847	1849448	3	802	inorganic	incorrect	1851757	1	848	1851567	1855722	1	849	1853687	3	358	1856106	1	850	1855808	1860071	1	851	1857928	2	1575	inorganic	incorrect	1861670	1	852	1860047	1865552	1	854	1864288	3	262	1865852	1	854	1864288	mal_20552.png	mal_Drucker.png	mal_Kugelschreiber.png	ok
63071	07/14/2021 16:52:55	1	91	53819	1869684	1	856	1868527	1872300	1	857	1870647	2	488	organic	incorrect	1872817	1	858	1872768	1876149	1	859	1874887	2	1934	1878115	1	860	1877007	1880197	1	861	1879127	3	1361	organic	correct	1881580	1	862	1881248	1884979	1	863	1883367	2	287	1885296	1	863	1883367	mon_69587.png	mon_Kartoffel.png	mon_Fuchs.png	ok
63071	07/14/2021 16:53:16	1	92	53819	1889678	1	865	1887608	1892210	1	867	1891847	2	1656	inorganic	correct	1893893	1	867	1891847	1896209	1	869	1896088	2	1592	1897825	1	869	1896088	1901174	1	871	1900327	3	1062	inorganic	correct	1902257	1	871	1900327	1906355	1	873	1904568	4	246	1906639	1	873	1904568	mae_36426.png	mae_Taschenrechner.png	mae_Schach.png	ok
63071	07/14/2021 16:53:35	1	93	53819	1910920	1	875	1908807	1913120	1	877	1913047	3	1168	organic	correct	1914319	1	877	1913047	1916635	1	878	1915167	2	2063	1918734	1	879	1917287	1920850	1	880	1919407	2	2101	organic	correct	1922983	1	881	1921527	1925699	1	882	1923647	2	589	1926315	1	883	1925767	fop_07937.png	fop_Koala.png	fop_Mango.png	ok
63071	07/14/2021 16:53:54	1	94	53819	1929781	1	884	1927887	1931747	1	885	1930007	2	1489	inorganic	correct	1933263	1	886	1932127	1936212	1	887	1934247	2	781	1937045	1	888	1936367	1940344	1	889	1938487	2	2208	inorganic	incorrect	1942576	1	890	1940607	1945009	1	892	1944847	2	297	1945342	1	892	1944847	fap_17119.png	fap_Kissen.png	fap_Knopf.png	ok
63071	07/14/2021 16:54:11	1	95	53819	1948824	1	893	1946967	1950607	1	894	1949087	3	1169	inorganic	incorrect	1951807	1	895	1951206	1954506	1	896	1953327	3	1158	1955689	1	897	1955447	1958238	1	898	1957567	3	2087	inorganic	correct	1960354	1	899	1959687	1962886	1	900	1961807	3	961	1963886	1	900	1961807	faw_14685.png	faw_Kuechenmaschine.png	faw_Hufeisen.png	ok
63071	07/14/2021 16:54:32	1	96	53819	1966318	1	902	1966046	1969517	1	903	1968167	3	263	organic	correct	1969817	1	903	1968167	1973083	1	905	1972407	3	1188	1974299	1	905	1972407	1977281	1	907	1976647	3	913	organic	correct	1978231	1	907	1976647	1982096	1	909	1980887	4	292	1982413	1	909	1980887	fov_15193.png	fov_Fisch.png	fov_Zucchini.png	ok
