ID	DateTime	Run	Encoding_Trial	FaceBase_OnsetTime	FaceBase_OnsetTimeUncertainty	FaceBase_fMRI_Pulse	FaceBase_fMRI_PulseTime	Assoc_Encoding_OnsetTime	Assoc_Encoding_OnsetTimeUncertainty	Assoc_Encoding_fMRI_Pulse	Assoc_Encoding_fMRI_PulseTime	Immediate_Recall_OnsetTime	Immediate_Recall_OnsetTimeUncertainty	Immediate_Recall_fMRI_Pulse	Immediate_Recall_fMRI_PulseTime	Immediate_Recall_Pressed_Button	Immediate_Recall_RT	Immediate_Recall_Accuracy	Immediate_Recall_Feedback_OnsetTime	Immediate_Recall_Feedback_OnsetTimeUncertainty	Immediate_Recall_Feedback_fMRI_Pulse	Immediate_Recall_Feedback_fMRI_PulseTime	Presented_Person	Presented_Object	Object_Category	First_pulse_time	TrialStatus
63158	08/24/2021 15:51:38	1	1	55097	1	6	53914	57297	1	7	56037	60512	1	9	60276	3	1115	incorrect	61662	1	9	60276	fap_16329.png	fap_Kissen.png	inorganic	43316	ok
63158	08/24/2021 15:51:49	1	2	65377	1	11	64517	67460	1	12	66636	71409	1	14	70877	2	869	correct	72308	1	14	70877	fan_17286.png	fan_Klavier.png	inorganic	43316	ok
63158	08/24/2021 15:52:00	1	3	75924	1	16	75116	78223	1	17	77236	83171	1	19	81476	2	361	correct	83555	1	19	81476	mak_00987.png	mak_Socken.png	inorganic	43316	ok
63158	08/24/2021 15:52:11	1	4	86837	1	21	85716	89852	1	22	87837	93651	1	24	92076	3	766	correct	94451	1	25	94196	foe_08236.png	foe_Tannenzapfen.png	organic	43316	ok
63158	08/24/2021 15:52:20	1	5	98016	1	26	96316	99832	1	27	98436	103131	1	29	102676	3	583	correct	103748	1	29	102676	for_15187.png	for_Seehund.png	organic	43316	ok
63158	08/24/2021 15:52:30	1	6	107013	1	31	106916	109712	1	32	109036	112945	1	33	111156	2	567	correct	113544	1	34	113276	fax_14883.png	fax_Fahrrad.png	inorganic	43316	ok
63158	08/24/2021 15:52:42	1	7	117243	1	35	115396	120209	1	37	119636	124241	1	39	123876	2	273	correct	124557	1	39	123876	maw_04767.png	maw_Pingpongschlaeger.png	inorganic	43316	ok
63158	08/24/2021 15:52:53	1	8	129172	1	41	128116	131738	1	42	130236	135770	1	44	134475	2	680	correct	136487	1	44	134475	mat_23275.png	mat_Feuerzeug.png	inorganic	43316	ok
63158	08/24/2021 15:53:05	1	9	139969	1	46	138716	142651	1	47	140836	147350	1	50	147196	2	370	correct	147749	1	50	147196	far_00736.png	far_Giesskanne.png	inorganic	43316	ok
63158	08/24/2021 15:53:17	1	10	151715	1	52	151436	155030	1	53	153556	158796	1	55	157795	3	264	correct	159096	1	55	157795	fok_09378.png	fok_Palme.png	organic	43316	ok
63158	08/24/2021 15:53:29	1	11	163961	1	57	162036	167359	1	59	166275	172041	1	61	170516	3	507	correct	172591	1	61	170516	mon_65798.png	mon_Fuchs.png	organic	43316	ok
63158	08/24/2021 15:53:40	1	12	176340	1	63	174755	178322	1	64	176876	182638	1	66	181115	2	1073	correct	183737	1	67	183235	mai_06530.png	mai_Auto.png	inorganic	43316	ok
63158	08/24/2021 15:53:52	1	13	187119	1	68	185356	190018	1	70	189595	194950	1	72	193836	2	708	correct	195683	1	72	193836	mae_01010.png	mae_Taschenrechner.png	inorganic	43316	ok
63158	08/24/2021 15:54:04	1	14	199332	1	74	198075	202481	1	76	202316	206596	1	78	206555	2	1697	incorrect	208329	1	78	206555	fop_00621.png	fop_Mango.png	organic	43316	ok
63158	08/24/2021 15:54:16	1	15	210961	1	80	210795	214044	1	81	212915	218709	1	83	217156	2	478	correct	219209	1	83	217156	fag_06539.png	fag_Geschenk.png	inorganic	43316	ok
63158	08/24/2021 15:54:26	1	16	222774	1	85	221395	225073	1	86	223515	228355	1	88	227755	2	933	correct	229322	1	88	227755	fai_07494.png	fai_Foehn.png	inorganic	43316	ok
63158	08/24/2021 15:54:36	1	17	232804	1	90	231996	235187	1	91	234115	239252	1	93	238355	2	497	correct	239785	1	93	238355	faj_07783.png	faj_Parfuem.png	inorganic	43316	ok
63158	08/24/2021 15:54:48	1	18	243417	1	95	242595	245716	1	96	244715	250415	1	98	248955	2	517	correct	250965	1	98	248955	map_41499.png	map_Pfeife.png	inorganic	43316	ok
63158	08/24/2021 15:54:58	1	19	254880	1	100	253195	257929	1	102	257435	261194	1	103	259555	3	1183	correct	262411	1	104	261675	foj_08220.png	foj_Waffel.png	organic	43316	ok
63158	08/24/2021 15:55:09	1	20	264543	1	105	263795	267059	1	106	265915	270441	1	108	270155	3	631	correct	271124	1	108	270155	moe_02012.png	moe_Waschbaer.png	organic	43316	ok
63158	08/24/2021 15:55:20	1	21	275756	1	110	274395	278455	1	111	276515	281921	1	113	280755	3	1152	correct	283104	1	114	282875	mot_69374.png	mot_Bison.png	organic	43316	ok
63158	08/24/2021 15:55:31	1	22	287236	1	116	287114	289401	1	117	289235	293783	1	119	293475	3	410	correct	294217	1	119	293475	foq_16799.png	foq_Fenchel.png	organic	43316	ok
63158	08/24/2021 15:55:42	1	23	298032	1	121	297715	301247	1	122	299835	304446	1	124	304074	2	678	correct	305146	1	124	304074	fac_02146.png	fac_Ohrring.png	inorganic	43316	ok
63158	08/24/2021 15:55:53	1	24	309145	1	126	308315	312060	1	127	310434	315593	1	129	314675	2	1762	correct	317392	1	130	316795	maj_01545.png	maj_Krawatte.png	inorganic	43316	ok
63158	08/24/2021 15:56:03	1	25	320258	1	131	318914	322024	1	132	321035	325922	1	134	325274	3	678	correct	326622	1	134	325274	mou_01862.png	mou_Kraehe.png	organic	43316	ok
63158	08/24/2021 15:56:13	1	26	329888	1	136	329515	331521	1	136	329515	334736	1	138	333754	3	1277	correct	336036	1	139	335874	mob_00760.png	mob_Kiwi.png	organic	43316	ok
63158	08/24/2021 15:56:24	1	27	339851	1	140	337995	342350	1	142	342234	346199	1	143	344354	2	936	correct	347165	1	144	346475	faw_14215.png	faw_Hufeisen.png	inorganic	43316	ok
63158	08/24/2021 15:56:36	1	28	350697	1	145	348594	353630	1	147	352835	358528	1	149	357074	3	769	correct	359328	1	150	359194	fov_15046.png	fov_Zucchini.png	organic	43316	ok
63158	08/24/2021 15:56:47	1	29	362927	1	151	361315	365792	1	153	365554	369224	1	154	367674	3	756	correct	370024	1	155	369795	moj_11821.png	moj_Blatt.png	organic	43316	ok
63158	08/24/2021 15:56:58	1	30	374439	1	157	374034	377088	1	158	376154	380621	1	160	380394	3	1817	correct	382470	1	160	380394	foa_00207.png	foa_Aubergine.png	organic	43316	ok
63158	08/24/2021 15:57:07	1	31	385219	1	162	384635	387302	1	163	386754	390617	1	164	388874	3	770	correct	391417	1	165	390994	fot_00797.png	fot_Taube.png	organic	43316	ok
63158	08/24/2021 15:57:20	1	32	394216	1	166	393115	397332	1	167	395234	401980	1	170	401594	3	1611	correct	403613	1	170	401594	foi_03389.png	foi_Pflanze.png	organic	43316	ok
63158	08/24/2021 15:57:29	1	33	406512	1	172	405834	408961	1	173	407954	412077	1	174	410074	3	1583	correct	413693	1	175	412194	mol_07679.png	mol_Pizza.png	organic	43316	ok
63158	08/24/2021 15:57:38	1	34	415759	1	176	414314	417391	1	177	416433	420574	1	178	418554	2	1600	correct	422223	1	179	420674	mal_04470.png	mal_Drucker.png	inorganic	43316	ok
63158	08/24/2021 15:57:46	1	35	424622	1	180	422794	426355	1	181	424914	429904	1	183	429154	2	990	correct	430920	1	183	429154	mas_41366.png	mas_Bueroklammer.png	inorganic	43316	ok
63158	08/24/2021 15:57:57	1	36	433469	1	185	433394	435519	1	185	433394	439967	1	188	439753	2	1052	correct	441050	1	188	439753	fat_12032.png	fat_Einkaufswagen.png	inorganic	43316	ok
63158	08/24/2021 15:58:07	1	37	444249	1	190	443994	446465	1	191	446114	449997	1	192	448233	3	855	correct	450880	1	193	450354	mof_02408.png	mof_Hahn.png	organic	43316	ok
63158	08/24/2021 15:58:17	1	38	454079	1	194	452474	455995	1	195	454594	459944	1	197	458834	2	1023	correct	460993	1	198	460954	fal_07906.png	fal_Korb.png	inorganic	43316	ok
63158	08/24/2021 15:58:30	1	39	463892	1	199	463073	467175	1	200	465193	471706	1	203	471553	2	665	correct	472406	1	203	471553	mau_49693.png	mau_Wasserventil.png	inorganic	43316	ok
63158	08/24/2021 15:58:39	1	40	476688	1	205	475794	478821	1	206	477913	482653	1	208	482154	3	1120	correct	483802	1	208	482154	fou_17118.png	fou_Feige.png	organic	43316	ok
63158	08/24/2021 15:58:51	1	41	486451	1	210	486393	489151	1	211	488513	493932	1	213	492753	3	348	correct	494315	1	213	492753	mom_59361.png	mom_Loewe.png	organic	43316	ok
63158	08/24/2021 15:59:01	1	42	497598	1	215	496993	499597	1	216	499114	502696	1	217	501233	2	1294	correct	504012	1	218	503353	fab_06018.png	fab_Kinderwagen.png	inorganic	43316	ok
63158	08/24/2021 15:59:12	1	43	507861	1	220	507594	510510	1	221	509713	513826	1	222	511833	2	1326	correct	515175	1	223	513954	mac_59169.png	mac_Dartpfeil.png	inorganic	43316	ok
63158	08/24/2021 15:59:22	1	44	518940	1	225	518193	522523	1	227	522434	525788	1	228	524553	3	792	correct	526605	1	228	524553	moh_06446.png	moh_Muecke.png	organic	43316	ok
63158	08/24/2021 15:59:34	1	45	529220	1	230	528793	532669	1	231	530914	536551	1	233	535153	3	1899	correct	538484	1	234	537273	mog_03090.png	mog_Pilz.png	organic	43316	ok
63158	08/24/2021 15:59:44	1	46	541200	1	235	539393	543732	1	237	543633	547198	1	238	545754	2	1291	correct	548514	1	239	547873	mao_11634.png	mao_Stempel.png	inorganic	43316	ok
63158	08/24/2021 15:59:57	1	47	551080	1	240	549993	554395	1	242	554233	558910	1	244	558473	3	913	correct	559860	1	244	558473	foc_02157.png	foc_Eule.png	organic	43316	ok
63158	08/24/2021 16:00:10	1	48	564242	1	246	562713	567691	1	248	566953	571339	1	250	571193	3	1155	correct	572522	1	250	571193	mos_20953.png	mos_Traube.png	organic	43316	ok
63158	08/24/2021 16:00:21	1	49	576671	1	252	575433	578620	1	253	577553	583285	1	255	581793	2	484	correct	583802	1	255	581793	fap_17119.png	fap_Knopf.png	inorganic	43316	ok
63158	08/24/2021 16:00:32	1	50	587651	1	257	586032	589700	1	258	588153	593798	1	260	592392	2	459	correct	594282	1	260	592392	fan_18894.png	fan_Lampe.png	inorganic	43316	ok
63158	08/24/2021 16:00:44	1	51	598813	1	263	598753	601912	1	264	600872	606477	1	266	605113	2	273	correct	606777	1	266	605113	mak_03979.png	mak_Rucksack.png	inorganic	43316	ok
63158	08/24/2021 16:00:56	1	52	610726	1	268	609352	614275	1	270	613593	618323	1	272	617832	3	497	correct	618873	1	272	617832	foe_08514.png	foe_Adler.png	organic	43316	ok
63158	08/24/2021 16:01:07	1	53	622839	1	274	622073	625421	1	275	624192	630203	1	277	628433	3	1326	correct	631552	1	278	630552	for_15880.png	for_Mandel.png	organic	43316	ok
63158	08/24/2021 16:01:20	1	54	633885	1	279	632672	637334	1	281	636913	642099	1	283	641152	2	1225	correct	643348	1	284	643273	fax_15310.png	fax_Klebeband.png	inorganic	43316	ok
63158	08/24/2021 16:01:32	1	55	646697	1	285	645393	650263	1	287	649632	653928	1	289	653872	2	329	correct	654295	1	289	653872	maw_22459.png	maw_Schlauchboot.png	inorganic	43316	ok
63158	08/24/2021 16:01:42	1	56	658743	1	291	658112	660792	1	292	660233	665391	1	294	664472	2	418	correct	665857	1	294	664472	mat_23754.png	mat_Helm.png	inorganic	43316	ok
63158	08/24/2021 16:01:52	1	57	669073	1	296	668712	670772	1	296	668712	674971	1	298	672952	2	763	correct	675771	1	299	675073	far_06518.png	far_Heissluftballon.png	inorganic	43316	ok
63158	08/24/2021 16:02:03	1	58	678636	1	300	677192	680902	1	301	679312	684784	1	303	683552	3	484	correct	685301	1	303	683552	fok_09860.png	fok_Kaenguruh.png	organic	43316	ok
63158	08/24/2021 16:02:13	1	59	689983	1	306	689912	692348	1	307	692032	695447	1	308	694152	3	735	correct	696214	1	308	694152	mon_69587.png	mon_Kartoffel.png	organic	43316	ok
63158	08/24/2021 16:02:25	1	60	700279	1	310	698392	703645	1	312	702632	707876	1	314	706872	2	551	correct	708460	1	314	706872	mai_23761.png	mai_Gewehr.png	inorganic	43316	ok
63158	08/24/2021 16:02:35	1	61	712242	1	316	711112	713891	1	317	713232	717173	1	318	715352	2	1135	correct	718356	1	319	717472	mae_36426.png	mae_Schach.png	inorganic	43316	ok
63158	08/24/2021 16:02:46	1	62	722272	1	321	721712	724521	1	322	723832	728853	1	324	728072	3	690	correct	729569	1	324	728072	fop_07937.png	fop_Koala.png	organic	43316	ok
63158	08/24/2021 16:02:57	1	63	732735	1	326	732312	735284	1	327	734432	738999	1	329	738671	2	1201	correct	740232	1	329	738671	fag_06551.png	fag_Portemonnaie.png	inorganic	43316	ok
63158	08/24/2021 16:03:07	1	64	743681	1	331	742912	745680	1	332	745031	749862	1	334	749272	2	1105	correct	750995	1	334	749272	fai_07637.png	fai_Kommode.png	inorganic	43316	ok
63158	08/24/2021 16:03:18	1	65	753611	1	336	753511	755910	1	337	755632	760492	1	339	759871	2	1825	correct	762341	1	340	761991	faj_07849.png	faj_Schuh.png	inorganic	43316	ok
63158	08/24/2021 16:03:29	1	66	765207	1	341	764112	768406	1	343	768351	771988	1	344	770471	2	1202	correct	773221	1	345	772592	map_49576.png	map_Globus.png	inorganic	43316	ok
63158	08/24/2021 16:03:40	1	67	775570	1	346	774712	778003	1	347	776831	781668	1	349	781072	3	641	correct	782335	1	349	781072	foj_08937.png	foj_Rose.png	organic	43316	ok
63158	08/24/2021 16:03:49	1	68	786633	1	351	785311	789199	1	352	787432	792764	1	354	791671	3	987	correct	793781	1	354	791671	moe_23630.png	moe_Pommes.png	organic	43316	ok
63158	08/24/2021 16:04:00	1	69	796330	1	356	795912	798929	1	357	798032	803694	1	359	802271	3	611	correct	804327	1	359	802271	mot_69770.png	mot_Hotdog.png	organic	43316	ok
63158	08/24/2021 16:04:12	1	70	807343	1	361	806511	810525	1	362	808631	813657	1	364	812872	3	852	correct	814557	1	364	812872	foq_17341.png	foq_Pinguin.png	organic	43316	ok
63158	08/24/2021 16:04:21	1	71	818672	1	366	817111	820755	1	367	819232	824554	1	369	823471	2	276	correct	824854	1	369	823471	fac_02970.png	fac_Haarbuerste.png	inorganic	43316	ok
63158	08/24/2021 16:04:31	1	72	827903	1	371	827712	830535	1	372	829831	833984	1	373	831951	2	1383	correct	835400	1	374	834071	maj_01546.png	maj_Computermaus.png	inorganic	43316	ok
63158	08/24/2021 16:04:43	1	73	838049	1	375	836191	841548	1	377	840431	844947	1	379	844671	3	893	correct	845863	1	379	844671	mou_06524.png	mou_Croissant.png	organic	43316	ok
63158	08/24/2021 16:04:53	1	74	850212	1	381	848911	852344	1	382	851031	855876	1	384	855271	3	516	correct	856426	1	384	855271	mob_22833.png	mob_Igel.png	organic	43316	ok
63158	08/24/2021 16:05:05	1	75	860108	1	386	859511	862174	1	387	861631	867056	1	389	865871	2	1707	correct	868789	1	390	867991	faw_14685.png	faw_Kuechenmaschine.png	inorganic	43316	ok
63158	08/24/2021 16:05:16	1	76	871954	1	391	870111	874037	1	392	872231	878285	1	394	876471	3	742	correct	879052	1	395	878591	fov_15193.png	fov_Fisch.png	organic	43316	ok
63158	08/24/2021 16:05:28	1	77	883234	1	397	882830	885466	1	398	884951	889982	1	400	889191	3	627	correct	890631	1	400	889191	moj_11860.png	moj_Walnuss.png	organic	43316	ok
63158	08/24/2021 16:05:38	1	78	894513	1	402	893431	896929	1	403	895551	900278	1	405	899791	3	785	correct	901094	1	405	899791	foa_00426.png	foa_Marienkaefer.png	organic	43316	ok
63158	08/24/2021 16:05:50	1	79	905460	1	407	904031	907959	1	408	906150	912124	1	410	910391	3	563	correct	912740	1	411	912510	fot_06092.png	fot_Salat.png	organic	43316	ok
63158	08/24/2021 16:05:59	1	80	916739	1	412	914630	918305	1	413	916751	922071	1	415	920990	3	1174	correct	923270	1	416	923110	foi_05187.png	foi_Apfelkuchen.png	organic	43316	ok
63158	08/24/2021 16:06:10	1	81	925786	1	417	925231	928768	1	418	927351	932617	1	420	931590	3	1628	correct	934267	1	421	933711	mol_11363.png	mol_Schimpanse.png	organic	43316	ok
63158	08/24/2021 16:06:21	1	82	937082	1	422	935830	939331	1	423	937950	943047	1	425	942191	2	1236	correct	944313	1	425	942191	mal_20552.png	mal_Kugelschreiber.png	inorganic	43316	ok
63158	08/24/2021 16:06:35	1	83	947979	1	427	946430	951527	1	429	950671	956476	1	431	954910	2	861	correct	957359	1	432	957031	mas_41937.png	mas_Tisch.png	inorganic	43316	ok
63158	08/24/2021 16:06:46	1	84	961724	1	434	961270	963823	1	435	963390	968072	1	437	967630	2	1533	correct	969638	1	437	967630	fat_14140.png	fat_Kleiderbuegel.png	inorganic	43316	ok
63158	08/24/2021 16:06:58	1	85	972887	1	439	971870	976352	1	441	976110	981334	1	443	980351	3	433	correct	981800	1	443	980351	mof_06901.png	mof_Spaghetti.png	organic	43316	ok
63158	08/24/2021 16:07:08	1	86	984933	1	445	984590	986615	1	445	984590	989964	1	447	988830	2	1523	correct	991514	1	448	990950	fal_07977.png	fal_Buegeleisen.png	inorganic	43316	ok
63158	08/24/2021 16:07:17	1	87	994546	1	449	993070	996895	1	450	995190	1000044	1	452	999430	2	1551	correct	1001627	1	453	1001550	mau_58144.png	mau_Leiter.png	inorganic	43316	ok
63158	08/24/2021 16:07:28	1	88	1004010	1	454	1003670	1006542	1	455	1005790	1010507	1	457	1010030	3	292	correct	1010841	1	457	1010030	fou_18966.png	fou_Schmetterling.png	organic	43316	ok
63158	08/24/2021 16:07:41	1	89	1014989	1	459	1014270	1018021	1	460	1016390	1022837	1	463	1022750	3	408	correct	1023270	1	463	1022750	mom_59641.png	mom_Ei.png	organic	43316	ok
63158	08/24/2021 16:07:51	1	90	1027585	1	465	1026989	1029951	1	466	1029110	1034799	1	468	1033350	2	736	correct	1035566	1	469	1035469	fab_06286.png	fab_Staubsauger.png	inorganic	43316	ok
63158	08/24/2021 16:08:02	1	91	1038181	1	470	1037590	1040764	1	471	1039710	1044579	1	473	1043949	2	1008	correct	1045612	1	473	1043949	mac_59752.png	mac_Medaille.png	inorganic	43316	ok
63158	08/24/2021 16:08:12	1	92	1048728	1	475	1048190	1050327	1	475	1048190	1054676	1	478	1054550	3	244	correct	1054942	1	478	1054550	moh_07125.png	moh_Birne.png	organic	43316	ok
63158	08/24/2021 16:08:22	1	93	1059474	1	480	1058789	1061240	1	481	1060910	1064989	1	482	1063030	3	797	correct	1065822	1	483	1065150	mog_03277.png	mog_Fledermaus.png	organic	43316	ok
63158	08/24/2021 16:08:33	1	94	1068571	1	484	1067269	1071603	1	486	1071510	1076452	1	488	1075749	2	370	correct	1076852	1	488	1075749	mao_19000.png	mao_Kegel.png	inorganic	43316	ok
63158	08/24/2021 16:08:43	1	95	1079851	1	489	1077870	1081433	1	490	1079990	1085815	1	492	1084229	3	1948	correct	1087798	1	493	1086350	foc_02664.png	foc_Brombeere.png	organic	43316	ok
63158	08/24/2021 16:08:56	1	96	1089797	1	494	1088469	1093279	1	496	1092709	1097828	1	498	1096949	3	341	correct	1098194	1	498	1096949	mos_23223.png	mos_Eintagsfliege.png	organic	43316	ok
