ID	DateTime	Run	Delayed_Retrieval_Trial	First_Pulse_Time	FaceRecog_OnsetTime	FaceRecog_OnsetTimeUncertainty	FaceRecog_fMRI_Pulse	FaceRecog_fMRI_PulseTime	Assoc_Retrieval_OnsetTime	Assoc_Retrieval_OnsetTimeUncertainty	Assoc_Retrieval_fMRI_Pulse	Assoc_Retrieval_fMRI_PulseTime	Assoc_Retrieval_Pressed_Button	Assoc_Retrieval_RT	Assoc_Retrieval_Response_Category	Assoc_Retrieval_Accuracy	Assoc_Retrieval_Feedback_OnsetTime	Assoc_Retrieval_Feedback_OnsetTimeUncertainty	Assoc_Retrieval_Feedback_fMRI_Pulse	Assoc_Retrieval_Feedback_fMRI_PulseTime	Retrieval_consc_Rating_OnsetTime	Retrieval_consc_Rating_OnsetTimeUncertainty	Retrieval_consc_Rating_fMRI_Pulse	Retrieval_consc_Rating_fMRI_PulseTime	Retrieval_consc_Rating_Pressed_Button	Retrieval_consc_Rating_RT	Retrieval_consc_Rating_Feedback_OnsetTime	Retrieval_consc_Rating_Feedback_OnsetTimeUncertainty	Retrieval_consc_Rating_Feedback_fMRI_Pulse	Retrieval_consc_Rating_Feedback_fMRI_PulseTime	ForcedChoice_OnsetTime	ForcedChoice_OnsetTimeUncertainty	ForcedChoice_fMRI_Pulse	ForcedChoice_fMRI_PulseTime	ForcedChoice_Pressed_Button	ForcedChoice_RT	ForcedChoice_Response_Category	ForcedChoice_Accuracy	ForcedChoice_Feedback_OnsetTime	ForcedChoice_Feedback_OnsetTimeUncertainty	ForcedChoice_Feedback_fMRI_Pulse	ForcedChoice_Feedback_fMRI_PulseTime	Recognition_consc_Rating_OnsetTime	Recognition_consc_Rating_OnsetTimeUncertainty	Recognition_consc_Rating_fMRI_Pulse	Recognition_consc_Rating_fMRI_PulseTime	Recognition_consc_Rating_Pressed_Button	Recognition_consc_Rating_RT	Recognition_consc_Rating_Feedback_OnsetTime	Recognition_consc_Rating_Feedback_OnsetTimeUncertainty	Recognition_consc_Rating_Feedback_fMRI_Pulse	Recognition_consc_Rating_Feedback_fMRI_PulseTime	Presented_Person	Presented_Target	Presented_Lure	TrialStatus
63896	08/18/2021 15:16:15	1	1	30895	43518	1	5	41696	46250	1	6	44395	3	588	inorganic	incorrect	46867	1	6	44395	49633	1	7	47095	4	1887	51549	1	8	49796	54414	1	9	52496	0	0	inorganic	miss	54414	1	10	55195	59346	1	11	57895	2	1067	60446	1	11	57895	fai_07494.png	fai_Kommode.png	fai_Foehn.png	ok
63896	08/18/2021 15:16:34	1	2	30895	63878	1	13	63295	65544	1	13	63295	3	1335	inorganic	incorrect	66910	1	14	65995	70426	1	15	68695	3	885	71342	1	15	68695	73841	1	16	71395	2	1215	inorganic	correct	75091	1	17	74095	78540	1	18	76795	4	787	79356	1	18	76795	far_00736.png	far_Heissluftballon.png	far_Giesskanne.png	ok
63896	08/18/2021 15:16:55	1	3	30895	83188	1	20	82195	86420	1	21	84895	2	1250	inorganic	correct	87703	1	22	87595	89952	1	22	87595	3	331	90336	1	22	87595	93518	1	24	92995	0	0	inorganic	miss	93518	1	25	95695	98766	1	26	98395	3	1392	100182	1	26	98395	maw_04767.png	maw_Pingpongschlaeger.png	maw_Schlauchboot.png	ok
63896	08/18/2021 15:17:17	1	4	30895	103681	1	27	101095	107113	1	29	106495	2	476	inorganic	correct	107613	1	29	106495	110845	1	30	109195	2	524	111395	1	30	109195	115910	1	32	114595	3	1609	inorganic	correct	117543	1	33	117295	121275	1	34	119995	4	488	121792	1	34	119995	fat_12032.png	fat_Kleiderbuegel.png	fat_Einkaufswagen.png	ok
63896	08/18/2021 15:17:37	1	5	30895	125507	1	36	125395	128939	1	37	128095	2	330	inorganic	correct	129306	1	37	128095	133121	1	38	130795	4	455	133604	1	39	133495	136803	1	40	136195	3	1294	inorganic	correct	138119	1	40	136195	142185	1	42	141595	4	853	143068	1	42	141595	faj_07783.png	faj_Schuh.png	faj_Parfuem.png	ok
63896	08/18/2021 15:17:56	1	6	30895	146067	1	43	144295	148849	1	44	146995	2	376	inorganic	correct	149249	1	44	146995	152698	1	46	152395	4	337	153064	1	46	152395	156646	1	47	155095	2	689	inorganic	correct	157363	1	47	155095	161245	1	49	160495	4	381	161661	1	49	160495	mat_23275.png	mat_Feuerzeug.png	mat_Helm.png	ok
63896	08/18/2021 15:18:15	1	7	30895	165027	1	50	163195	166660	1	51	165895	2	1285	inorganic	correct	167976	1	51	165895	170825	1	52	168595	3	442	171291	1	52	168595	174240	1	54	173994	2	2143	inorganic	correct	176406	1	54	173994	179455	1	56	179394	4	447	179939	1	56	179394	fal_07906.png	fal_Buegeleisen.png	fal_Korb.png	ok
63896	08/18/2021 15:18:35	1	8	30895	183721	1	57	182094	185287	1	58	184794	3	496	organic	correct	185820	1	58	184794	190618	1	60	190194	4	411	191068	1	60	190194	195800	1	62	195594	2	527	organic	correct	196350	1	62	195594	199549	1	63	198294	4	445	200015	1	63	198294	moe_02012.png	moe_Pommes.png	moe_Waschbaer.png	ok
63896	08/18/2021 15:18:54	1	9	30895	203381	1	64	200994	205580	1	65	203694	3	1329	organic	correct	206946	1	66	206394	209645	1	67	209094	2	349	210028	1	67	209094	214194	1	68	211794	2	1986	organic	correct	216210	1	69	214494	218859	1	70	217194	4	417	219309	1	70	217194	foj_08220.png	foj_Waffel.png	foj_Rose.png	ok
63896	08/18/2021 15:19:16	1	10	30895	222441	1	71	219894	225373	1	73	225294	2	681	organic	incorrect	226090	1	73	225294	230521	1	74	227994	3	385	230938	1	75	230694	235103	1	76	233394	2	2836	organic	correct	237986	1	77	236094	239435	1	78	238794	3	653	240135	1	78	238794	mol_07679.png	mol_Schimpanse.png	mol_Pizza.png	ok
63896	08/18/2021 15:19:38	1	11	30895	244783	1	80	244194	248299	1	81	246894	3	318	organic	correct	248649	1	81	246894	253397	1	83	252294	3	396	253830	1	83	252294	258545	1	85	257694	2	981	organic	correct	259562	1	85	257694	263144	1	87	263094	4	483	263660	1	87	263094	mog_03090.png	mog_Fledermaus.png	mog_Pilz.png	ok
63896	08/18/2021 15:19:55	1	12	30895	266992	1	88	265794	269058	1	89	268494	3	446	organic	correct	269542	1	89	268494	272591	1	90	271194	4	698	273324	1	90	271194	276373	1	91	273894	2	1944	organic	correct	278339	1	92	276594	280088	1	93	279294	4	467	280588	1	93	279294	fop_00621.png	fop_Mango.png	fop_Koala.png	ok
63896	08/18/2021 15:20:16	1	13	30895	284287	1	94	281994	286469	1	95	284694	3	396	organic	correct	286936	1	95	284694	291634	1	97	290094	4	331	292001	1	97	290094	295383	1	98	292794	2	1857	organic	correct	297266	1	99	295494	299698	1	100	298193	4	807	300531	1	100	298193	mot_69374.png	mot_Bison.png	mot_Hotdog.png	ok
63896	08/18/2021 15:20:37	1	14	30895	304680	1	102	303593	307345	1	103	306293	2	571	inorganic	correct	307945	1	103	306293	312210	1	105	311693	3	306	312544	1	105	311693	316692	1	106	314393	3	1994	inorganic	correct	318708	1	107	317093	320974	1	108	319793	4	312	321324	1	108	319793	fag_06539.png	fag_Portemonnaie.png	fag_Geschenk.png	ok
63896	08/18/2021 15:20:56	1	15	30895	326289	1	110	325193	327988	1	111	327893	3	1862	organic	correct	329888	1	111	327893	331754	1	112	330593	2	391	332170	1	112	330593	335619	1	113	333293	2	1096	organic	correct	336752	1	114	335993	340617	1	115	338693	3	335	340984	1	115	338693	mou_01862.png	mou_Kraehe.png	mou_Croissant.png	ok
63896	08/18/2021 15:21:17	1	16	30895	345299	1	117	344093	347982	1	118	346793	3	405	organic	correct	348415	1	118	346793	351930	1	119	349493	4	400	352364	1	120	352193	357062	1	121	354893	2	1115	organic	correct	358212	1	122	357593	361394	1	123	360293	4	692	362110	1	123	360293	moj_11821.png	moj_Blatt.png	moj_Walnuss.png	ok
63896	08/18/2021 15:21:38	1	17	30895	366192	1	125	365693	368991	1	126	368393	2	413	inorganic	correct	369441	1	126	368393	372973	1	127	371093	3	373	373373	1	127	371093	376739	1	129	376493	3	2196	inorganic	correct	378955	1	129	376493	382087	1	131	381893	4	524	382637	1	131	381893	maj_01545.png	maj_Computermaus.png	maj_Krawatte.png	ok
63896	08/18/2021 15:21:59	1	18	30895	387102	1	132	384593	389518	1	133	387293	2	792	inorganic	correct	390334	1	134	389993	394699	1	135	392693	4	408	395132	1	135	392693	399814	1	137	398093	2	615	inorganic	correct	400464	1	137	398093	403596	1	139	403493	4	569	404196	1	139	403493	fab_06018.png	fab_Staubsauger.png	fab_Kinderwagen.png	ok
63896	08/18/2021 15:22:20	1	19	30895	407778	1	140	406193	411277	1	141	408893	3	674	organic	correct	411977	1	142	411593	414676	1	143	414293	4	1403	416109	1	143	414293	419824	1	145	419692	3	633	organic	correct	420490	1	145	419692	424189	1	146	422392	4	703	424922	1	146	422392	mom_59361.png	mom_Ei.png	mom_Loewe.png	ok
63896	08/18/2021 15:22:40	1	20	30895	429104	1	148	427792	430970	1	149	430492	3	673	organic	correct	431670	1	149	430492	436152	1	151	435892	4	353	436552	1	151	435892	440117	1	152	438592	2	1108	organic	correct	441250	1	152	438592	445399	1	154	443992	4	473	445899	1	154	443992	mob_00760.png	mob_Igel.png	mob_Kiwi.png	ok
63896	08/18/2021 15:23:01	1	21	30895	449147	1	155	446692	451797	1	156	449392	2	1338	organic	incorrect	453163	1	157	452092	455162	1	158	454792	4	660	455845	1	158	454792	460110	1	159	457492	0	0	organic	miss	460110	1	161	462892	465459	1	161	462892	3	581	466075	1	162	465592	mof_02408.png	mof_Spaghetti.png	mof_Hahn.png	ok
63896	08/18/2021 15:23:23	1	22	30895	470257	1	163	468292	473772	1	165	473692	3	344	inorganic	incorrect	474139	1	165	473692	477171	1	166	476392	2	407	477604	1	166	476392	482070	1	168	481792	3	1449	inorganic	correct	483569	1	168	481792	486501	1	169	484492	4	412	486951	1	169	484492	mai_06530.png	mai_Auto.png	mai_Gewehr.png	ok
63896	08/18/2021 15:23:44	1	23	30895	491783	1	171	489892	494116	1	172	492592	3	345	organic	correct	494482	1	172	492592	498964	1	174	497992	4	467	499464	1	174	497992	502963	1	175	500692	3	1397	organic	correct	504395	1	176	503392	507661	1	177	506092	4	809	508494	1	177	506092	fot_00797.png	fot_Taube.png	fot_Salat.png	ok
63896	08/18/2021 15:24:03	1	24	30895	512359	1	179	511492	514042	1	179	511492	3	375	inorganic	incorrect	514442	1	180	514192	518341	1	181	516892	3	339	518707	1	181	516892	522856	1	183	522292	2	1223	inorganic	correct	524105	1	183	522292	526605	1	184	524992	4	493	527121	1	184	524992	fax_14883.png	fax_Fahrrad.png	fax_Klebeband.png	ok
63896	08/18/2021 15:24:21	1	25	30895	531703	1	186	530392	533735	1	187	533092	2	343	inorganic	correct	534119	1	187	533092	537168	1	188	535791	4	633	537834	1	188	535791	541116	1	189	538491	2	624	inorganic	correct	541766	1	190	541191	546298	1	191	543891	4	592	546914	1	192	546591	fap_16329.png	fap_Knopf.png	fap_Kissen.png	ok
63896	08/18/2021 15:24:41	1	26	30895	550213	1	193	549291	552846	1	194	551991	2	552	inorganic	correct	553429	1	194	551991	556228	1	195	554691	2	373	556628	1	195	554691	561010	1	197	560091	2	1209	inorganic	correct	562242	1	197	560091	565875	1	199	565491	4	412	566308	1	199	565491	mas_41366.png	mas_Bueroklammer.png	mas_Tisch.png	ok
63896	08/18/2021 15:25:03	1	27	30895	570306	1	200	568191	573155	1	201	570891	3	320	organic	correct	573505	1	201	570891	576488	1	203	576291	4	622	577137	1	203	576291	581336	1	204	578991	3	752	organic	correct	582136	1	205	581691	586534	1	206	584391	4	337	586901	1	206	584391	mon_65798.png	mon_Fuchs.png	mon_Kartoffel.png	ok
63896	08/18/2021 15:25:23	1	28	30895	591349	1	208	589791	594315	1	209	592491	2	1057	inorganic	correct	595398	1	210	595191	597680	1	210	595191	2	974	598680	1	211	597891	601446	1	212	600591	3	1904	inorganic	correct	603379	1	213	603291	606927	1	214	605991	4	296	607261	1	214	605991	mal_04470.png	mal_Kugelschreiber.png	mal_Drucker.png	ok
63896	08/18/2021 15:25:42	1	29	30895	611476	1	216	611391	613808	1	216	611391	3	320	organic	correct	614158	1	217	614091	619007	1	218	616791	4	384	619423	1	218	616791	622372	1	220	622191	2	782	organic	correct	623188	1	220	622191	626887	1	221	624891	4	550	627470	1	221	624891	foc_02157.png	foc_Brombeere.png	foc_Eule.png	ok
63896	08/18/2021 15:25:59	1	30	30895	630336	1	223	630291	632419	1	223	630291	2	1650	inorganic	correct	634118	1	224	632991	636034	1	225	635691	4	818	636884	1	225	635691	640616	1	226	638391	3	563	inorganic	correct	641199	1	227	641091	644898	1	228	643791	4	382	645314	1	228	643791	faw_14215.png	faw_Hufeisen.png	faw_Kuechenmaschine.png	ok
63896	08/18/2021 15:26:19	1	31	30895	648247	1	229	646491	650046	1	230	649191	2	819	organic	incorrect	650896	1	230	649191	653795	1	231	651891	2	476	654295	1	231	651891	658743	1	233	657291	3	1918	organic	correct	660692	1	234	659991	662908	1	235	662691	4	1159	664091	1	235	662691	foi_03389.png	foi_Pflanze.png	foi_Apfelkuchen.png	ok
63896	08/18/2021 15:26:38	1	32	30895	667474	1	236	665391	670856	1	238	670791	2	321	inorganic	correct	671206	1	238	670791	675371	1	239	673491	4	359	675754	1	239	673491	679319	1	241	678891	3	757	inorganic	correct	680103	1	241	678891	682952	1	242	681591	4	645	683651	1	242	681591	mac_59169.png	mac_Medaille.png	mac_Dartpfeil.png	ok
63896	08/18/2021 15:27:00	1	33	30895	686884	1	243	684291	689716	1	244	686991	2	287	organic	incorrect	690033	1	245	689691	694681	1	246	692391	3	429	695147	1	247	695091	698913	1	248	697791	2	2200	organic	correct	701145	1	249	700491	703428	1	250	703191	3	1300	704761	1	250	703191	mos_20953.png	mos_Eintagsfliege.png	mos_Traube.png	ok
63896	08/18/2021 15:27:19	1	34	30895	708510	1	251	705891	711492	1	253	711291	3	1436	organic	correct	712958	1	253	711291	715790	1	254	713991	2	464	716290	1	254	713991	719606	1	256	719391	0	0	organic	miss	719606	1	257	722091	724404	1	257	722091	2	363	724804	1	257	722091	moh_06446.png	moh_Birne.png	moh_Muecke.png	ok
63896	08/18/2021 15:27:41	1	35	30895	727770	1	259	727491	731269	1	260	730191	3	290	organic	correct	731602	1	260	730191	736100	1	262	735591	4	755	736883	1	262	735591	739549	1	263	738291	3	1202	organic	correct	740782	1	263	738291	744181	1	265	743691	4	662	744881	1	265	743691	fok_09378.png	fok_Palme.png	fok_Kaenguruh.png	ok
63896	08/18/2021 15:28:01	1	36	30895	749379	1	267	749091	752378	1	268	751791	2	352	inorganic	correct	752761	1	268	751791	756443	1	269	754491	3	385	756860	1	269	754491	760309	1	271	759891	3	2521	inorganic	correct	762858	1	272	762591	765824	1	273	765291	4	449	766307	1	273	765291	mak_00987.png	mak_Rucksack.png	mak_Socken.png	ok
63896	08/18/2021 15:28:23	1	37	30895	769422	1	274	767991	772655	1	275	770691	2	644	inorganic	correct	773321	1	275	770691	777236	1	277	776090	4	582	777853	1	277	776090	782351	1	279	781489	2	607	inorganic	correct	783001	1	279	781489	787666	1	281	786889	4	635	788333	1	281	786889	mau_49693.png	mau_Wasserventil.png	mau_Leiter.png	ok
63896	08/18/2021 15:28:44	1	38	30895	791715	1	282	789589	794764	1	283	792289	3	313	organic	correct	795114	1	284	794990	799862	1	285	797690	2	430	800329	1	285	797690	804494	1	287	803090	0	0	organic	miss	804494	1	288	805789	808526	1	289	808489	2	1012	809575	1	289	808489	for_15187.png	for_Seehund.png	for_Mandel.png	ok
63896	08/18/2021 15:29:06	1	39	30895	813307	1	290	811190	816606	1	291	813889	3	390	organic	correct	817023	1	292	816590	820622	1	293	819290	2	1198	821855	1	293	819290	825670	1	295	824689	2	1366	organic	correct	827069	1	295	824689	829702	1	296	827390	4	347	830102	1	296	827390	foq_16799.png	foq_Pinguin.png	foq_Fenchel.png	ok
63896	08/18/2021 15:29:25	1	40	30895	834617	1	298	832789	836650	1	299	835489	2	1952	inorganic	correct	838632	1	300	838189	840082	1	300	838189	3	502	840615	1	300	838189	843447	1	301	840890	3	1546	inorganic	correct	845013	1	302	843589	848646	1	303	846289	4	360	849029	1	304	848989	mae_01010.png	mae_Taschenrechner.png	mae_Schach.png	ok
63896	08/18/2021 15:29:43	1	41	30895	853427	1	305	851689	855477	1	306	854390	2	452	inorganic	correct	855960	1	306	854390	859608	1	307	857089	4	582	860225	1	308	859790	863857	1	309	862489	2	582	inorganic	correct	864473	1	309	862489	868405	1	311	867889	4	581	869022	1	311	867889	fac_02146.png	fac_Haarbuerste.png	fac_Ohrring.png	ok
63896	08/18/2021 15:30:02	1	42	30895	871804	1	312	870590	873837	1	313	873289	3	320	inorganic	incorrect	874187	1	313	873289	878719	1	314	875989	3	380	879152	2	315	878689	882317	1	316	881389	2	1781	inorganic	incorrect	884133	1	317	884089	886916	1	318	886790	2	556	887499	1	318	886790	mao_11634.png	mao_Stempel.png	mao_Kegel.png	ok
63896	08/18/2021 15:30:21	1	43	30895	890498	1	319	889489	892897	1	320	892189	3	383	organic	correct	893314	1	320	892189	897512	1	321	894888	4	625	898162	1	322	897588	901194	1	323	900289	2	512	organic	correct	901728	1	323	900289	905176	1	324	902988	4	718	905926	1	325	905688	fou_17118.png	fou_Schmetterling.png	fou_Feige.png	ok
63896	08/18/2021 15:30:43	1	44	30895	910058	1	326	908388	913574	1	327	911088	2	2362	inorganic	correct	915973	1	328	913789	918389	1	329	916488	3	471	918888	1	329	916488	923670	1	331	921888	3	1962	inorganic	correct	925653	1	332	924588	928568	1	333	927288	4	390	929002	1	333	927288	fan_17286.png	fan_Klavier.png	fan_Lampe.png	ok
63896	08/18/2021 15:31:04	1	45	30895	932317	1	334	929988	934716	1	335	932688	2	308	inorganic	correct	935050	1	335	932688	939498	1	337	938088	4	895	940431	1	337	938088	943880	1	339	943488	3	1182	inorganic	incorrect	945096	1	339	943488	948895	1	340	946188	3	968	949895	1	341	948889	map_41499.png	map_Globus.png	map_Pfeife.png	ok
63896	08/18/2021 15:31:25	1	46	30895	952827	1	342	951588	955343	1	343	954288	3	351	organic	correct	955726	1	343	954288	959608	1	344	956989	4	409	960041	1	345	959688	964440	1	346	962388	2	668	organic	correct	965139	1	347	965089	969038	1	348	967788	4	978	970054	1	348	967788	foe_08236.png	foe_Tannenzapfen.png	foe_Adler.png	ok
63896	08/18/2021 15:31:47	1	47	30895	973870	1	350	973188	976152	1	351	975888	3	265	organic	correct	976452	1	351	975888	981317	1	352	978588	3	1143	982484	1	353	981288	985066	1	354	983988	2	568	organic	correct	985666	1	354	983988	990231	1	356	989388	4	425	990681	1	356	989388	foa_00207.png	foa_Aubergine.png	foa_Marienkaefer.png	ok
63896	08/18/2021 15:32:09	1	48	30895	995512	1	358	994788	998761	1	359	997488	3	351	organic	correct	999145	1	359	997488	1003193	1	361	1002888	2	330	1003560	1	361	1002888	1006892	1	362	1005588	2	2359	organic	correct	1009274	1	363	1008288	1012223	1	364	1010988	2	925	1013173	1	364	1010988	fov_15046.png	fov_Fisch.png	fov_Zucchini.png	ok
63896	08/18/2021 15:32:28	1	49	30895	1017522	1	366	1016387	1019188	1	367	1019087	3	341	inorganic	incorrect	1019554	1	367	1019087	1024053	1	368	1021787	2	327	1024403	1	368	1021787	1028768	1	370	1027187	3	1946	inorganic	correct	1030751	1	371	1029887	1032750	1	372	1032587	4	295	1033083	1	372	1032587	fai_07637.png	fai_Foehn.png	fai_Kommode.png	ok
63896	08/18/2021 15:32:50	1	50	30895	1036699	1	373	1035287	1040014	1	374	1037987	2	1130	inorganic	correct	1041180	1	375	1040687	1044729	1	376	1043387	3	442	1045196	1	376	1043387	1048928	1	378	1048787	3	1784	inorganic	incorrect	1050744	1	378	1048787	1054059	1	379	1051487	2	376	1054459	1	380	1054187	maw_22459.png	maw_Schlauchboot.png	maw_Pingpongschlaeger.png	ok
63896	08/18/2021 15:33:10	1	51	30895	1059008	1	381	1056887	1060674	1	382	1059587	2	2211	inorganic	correct	1062906	1	383	1062287	1064539	1	383	1062287	3	290	1064856	1	383	1062287	1068971	1	385	1067687	3	1941	inorganic	correct	1070937	1	386	1070387	1074219	1	387	1073087	4	408	1074652	1	387	1073087	far_06518.png	far_Giesskanne.png	far_Heissluftballon.png	ok
63896	08/18/2021 15:33:29	1	52	30895	1078751	1	389	1078487	1081000	1	389	1078487	3	361	inorganic	incorrect	1081383	1	390	1081187	1085399	1	391	1083887	2	294	1085715	1	391	1083887	1088814	1	392	1086587	3	1561	inorganic	correct	1090397	1	393	1089287	1092713	1	394	1091987	4	492	1093229	1	394	1091987	fat_14140.png	fat_Einkaufswagen.png	fat_Kleiderbuegel.png	ok
63896	08/18/2021 15:33:48	1	53	30895	1097461	1	396	1097387	1099927	1	396	1097387	3	275	inorganic	incorrect	1100227	1	397	1100087	1103792	1	398	1102787	3	888	1104709	1	398	1102787	1108124	1	399	1105487	3	1221	inorganic	correct	1109374	1	400	1108187	1112256	1	401	1110887	4	288	1112573	1	401	1110887	faj_07849.png	faj_Parfuem.png	faj_Schuh.png	ok
63896	08/18/2021 15:34:07	1	54	30895	1116705	1	403	1116287	1118288	1	403	1116287	3	1929	inorganic	incorrect	1120254	1	404	1118987	1122819	1	405	1121687	2	487	1123336	1	405	1121687	1127251	1	407	1127087	2	1467	inorganic	correct	1128767	1	407	1127087	1131883	1	408	1129787	4	343	1132249	1	408	1129787	fal_07977.png	fal_Korb.png	fal_Buegeleisen.png	ok
63896	08/18/2021 15:34:27	1	55	30895	1135998	1	410	1135186	1137598	1	410	1135186	2	1063	inorganic	correct	1138697	1	411	1137886	1141180	1	412	1140586	4	519	1141730	1	412	1140586	1146045	1	414	1145986	3	705	inorganic	correct	1146778	1	414	1145986	1151026	1	415	1148686	4	762	1151826	1	416	1151386	mat_23754.png	mat_Helm.png	mat_Feuerzeug.png	ok
63896	08/18/2021 15:34:48	1	56	30895	1155792	1	417	1154086	1157541	1	418	1156786	2	531	organic	incorrect	1158107	1	418	1156786	1162589	1	420	1162186	3	305	1162922	1	420	1162186	1166288	1	421	1164886	2	1133	organic	correct	1167454	1	421	1164886	1171736	1	423	1170286	4	500	1172269	1	423	1170286	moe_23630.png	moe_Waschbaer.png	moe_Pommes.png	ok
63896	08/18/2021 15:35:06	1	57	30895	1176568	1	425	1175686	1178184	1	425	1175686	3	969	organic	correct	1179184	1	426	1178386	1182732	1	427	1181086	3	273	1183032	1	427	1181086	1187831	1	429	1186486	3	1609	organic	correct	1189463	1	430	1189186	1191696	1	430	1189186	4	447	1192179	1	431	1191886	fop_07937.png	fop_Koala.png	fop_Mango.png	ok
63896	08/18/2021 15:35:24	1	58	30895	1195178	1	432	1194586	1197261	1	432	1194586	3	727	organic	correct	1198011	1	433	1197286	1201060	1	434	1199986	4	254	1201343	1	434	1199986	1204742	1	435	1202686	3	591	organic	correct	1205358	1	435	1202686	1209623	1	437	1208086	4	431	1210090	1	437	1208086	foj_08937.png	foj_Rose.png	foj_Waffel.png	ok
63896	08/18/2021 15:35:44	1	59	30895	1213255	1	438	1210786	1215988	1	439	1213486	2	259	organic	incorrect	1216271	1	440	1216186	1220953	1	441	1218886	3	470	1221453	1	441	1218886	1224385	1	443	1224286	3	1173	organic	correct	1225601	1	443	1224286	1228684	1	444	1226986	4	274	1228983	1	444	1226986	mog_03277.png	mog_Pilz.png	mog_Fledermaus.png	ok
63896	08/18/2021 15:36:05	1	60	30895	1232732	1	446	1232386	1235764	1	447	1235086	3	1290	organic	correct	1237081	1	447	1235086	1239447	1	448	1237786	2	350	1239830	1	448	1237786	1244078	1	450	1243186	2	1219	organic	correct	1245328	1	450	1243186	1249077	1	452	1248586	4	334	1249443	1	452	1248586	mol_11363.png	mol_Pizza.png	mol_Schimpanse.png	ok
63896	08/18/2021 15:36:23	1	61	30895	1253342	1	453	1251286	1255608	1	454	1253985	3	267	organic	correct	1255908	1	454	1253985	1259756	1	456	1259385	4	486	1260273	1	456	1259385	1263105	1	457	1262086	2	540	organic	correct	1263672	1	457	1262086	1267737	1	459	1267485	4	331	1268103	1	459	1267485	mot_69770.png	mot_Hotdog.png	mot_Bison.png	ok
63896	08/18/2021 15:36:44	1	62	30895	1271786	1	460	1270185	1274918	1	461	1272886	2	302	organic	incorrect	1275268	1	461	1272886	1278950	1	463	1278286	3	309	1279283	1	463	1278286	1283815	1	465	1283685	2	1211	organic	correct	1285048	1	465	1283685	1287997	1	466	1286385	4	382	1288413	1	466	1286385	moj_11860.png	moj_Walnuss.png	moj_Blatt.png	ok
63896	08/18/2021 15:37:07	1	63	30895	1292762	1	468	1291785	1295694	1	469	1294486	3	316	organic	correct	1296044	1	469	1294486	1300559	1	471	1299886	2	364	1300959	1	471	1299886	1305857	1	473	1305285	2	1111	organic	correct	1306990	1	473	1305285	1311056	1	475	1310686	4	382	1311472	1	475	1310686	mou_06524.png	mou_Croissant.png	mou_Kraehe.png	ok
63896	08/18/2021 15:37:27	1	64	30895	1316137	1	477	1316086	1318436	1	477	1316086	2	2614	inorganic	correct	1321086	1	478	1318786	1322418	1	479	1321486	4	382	1322852	1	479	1321486	1326001	1	480	1324186	3	539	inorganic	correct	1326584	1	480	1324186	1331232	1	482	1329586	4	967	1332232	1	482	1329586	fag_06551.png	fag_Geschenk.png	fag_Portemonnaie.png	ok
63896	08/18/2021 15:37:47	1	65	30895	1336030	1	484	1334986	1337697	1	484	1334986	2	786	inorganic	correct	1338513	1	485	1337686	1341329	1	486	1340386	4	324	1341679	1	486	1340386	1345861	1	488	1345786	2	545	inorganic	correct	1346427	1	488	1345786	1350592	1	489	1348486	4	1572	1352192	1	490	1351186	fab_06286.png	fab_Kinderwagen.png	fab_Staubsauger.png	ok
63896	08/18/2021 15:38:07	1	66	30895	1355541	1	491	1353886	1358256	1	492	1356586	2	273	organic	incorrect	1358556	1	492	1356586	1362338	1	494	1361986	3	715	1363088	1	494	1361986	1366903	1	495	1364686	2	1678	organic	correct	1368603	1	496	1367386	1370752	1	497	1370086	4	533	1371319	1	497	1370086	mob_22833.png	mob_Kiwi.png	mob_Igel.png	ok
63896	08/18/2021 15:38:25	1	67	30895	1375950	1	499	1375485	1379283	1	500	1378185	3	297	organic	correct	1379616	1	500	1378185	1382731	1	501	1380885	4	413	1383181	1	501	1380885	1386097	1	502	1383585	3	1229	organic	correct	1387346	1	503	1386285	1390312	1	504	1388985	4	475	1390812	1	504	1388985	mom_59641.png	mom_Loewe.png	mom_Ei.png	ok
63896	08/18/2021 15:38:47	1	68	30895	1394061	1	505	1391685	1396543	1	506	1394385	2	657	inorganic	correct	1397226	1	507	1397085	1401675	1	508	1399785	2	1063	1402775	1	509	1402485	1406873	1	510	1405185	3	1049	inorganic	correct	1407956	1	511	1407885	1411022	1	512	1410585	4	642	1411688	1	512	1410585	maj_01546.png	maj_Krawatte.png	maj_Computermaus.png	ok
63896	08/18/2021 15:39:06	1	69	30895	1416237	1	514	1415985	1418419	1	514	1415985	3	358	organic	correct	1418802	1	515	1418685	1423584	1	516	1421385	4	649	1424284	1	517	1424085	1427066	1	518	1426785	2	596	organic	correct	1427683	1	518	1426785	1431548	1	519	1429485	4	628	1432198	1	519	1429485	fot_06092.png	fot_Salat.png	fot_Taube.png	ok
63896	08/18/2021 15:39:27	1	70	30895	1435114	1	521	1434885	1437829	1	522	1437585	2	1020	inorganic	correct	1438879	1	522	1437585	1443061	1	524	1442985	4	458	1443544	1	524	1442985	1447676	1	525	1445685	2	551	inorganic	correct	1448259	1	525	1445685	1451725	1	527	1451085	4	456	1452208	1	527	1451085	mai_23761.png	mai_Gewehr.png	mai_Auto.png	ok
63896	08/18/2021 15:39:48	1	71	30895	1455407	1	528	1453785	1458789	1	529	1456485	2	482	organic	incorrect	1459305	1	530	1459185	1463754	1	531	1461885	3	323	1464104	1	531	1461885	1467753	1	533	1467285	2	1367	organic	incorrect	1469152	1	533	1467285	1472418	1	534	1469985	3	1660	1474117	1	535	1472685	mof_06901.png	mof_Hahn.png	mof_Spaghetti.png	ok
63896	08/18/2021 15:40:08	1	72	30895	1476483	1	536	1475385	1479665	1	537	1478085	3	437	inorganic	incorrect	1480132	1	537	1478085	1483281	1	538	1480785	2	371	1483681	1	539	1483485	1486979	1	540	1486185	2	1059	inorganic	correct	1488062	1	540	1486185	1492144	1	542	1491585	4	357	1492528	1	542	1491585	fax_15310.png	fax_Klebeband.png	fax_Fahrrad.png	ok
63896	08/18/2021 15:40:27	1	73	30895	1496943	1	543	1494285	1500092	1	545	1499684	2	401	organic	incorrect	1500525	1	545	1499684	1503540	1	546	1502384	3	400	1503974	1	546	1502384	1508006	1	548	1507784	3	1564	organic	correct	1509605	1	548	1507784	1512287	1	549	1510484	4	470	1512787	1	549	1510484	mon_69587.png	mon_Kartoffel.png	mon_Fuchs.png	ok
63896	08/18/2021 15:40:46	1	74	30895	1516186	1	551	1515884	1518535	1	551	1515884	2	377	inorganic	correct	1518935	1	552	1518584	1521984	1	553	1521284	2	315	1522351	1	553	1521284	1527332	1	555	1526684	2	865	inorganic	correct	1528232	1	555	1526684	1530965	1	556	1529384	4	358	1531348	1	556	1529384	fap_17119.png	fap_Kissen.png	fap_Knopf.png	ok
63896	08/18/2021 15:41:07	1	75	30895	1534580	1	557	1532084	1537496	1	558	1534784	3	921	inorganic	incorrect	1538445	1	559	1537484	1542761	1	560	1540184	4	517	1543310	1	561	1542884	1546193	1	562	1545584	2	1285	inorganic	correct	1547509	1	562	1545584	1551674	1	564	1550984	4	384	1552091	1	564	1550984	mas_41937.png	mas_Tisch.png	mas_Bueroklammer.png	ok
63896	08/18/2021 15:41:27	1	76	30895	1556089	1	565	1553684	1559388	1	567	1559084	3	298	inorganic	incorrect	1559721	1	567	1559084	1563137	1	568	1561784	2	1546	1564720	1	569	1564484	1567502	1	570	1567184	3	977	inorganic	correct	1568502	1	570	1567184	1571301	1	571	1569884	4	362	1571717	1	571	1569884	mal_20552.png	mal_Drucker.png	mal_Kugelschreiber.png	ok
63896	08/18/2021 15:41:47	1	77	30895	1575549	1	573	1575284	1578448	1	574	1577984	3	279	inorganic	incorrect	1578765	1	574	1577984	1581997	1	575	1580684	3	298	1582330	1	575	1580684	1586529	1	577	1586084	3	1361	inorganic	correct	1587912	1	577	1586084	1591927	1	579	1591484	4	396	1592360	1	579	1591484	mac_59752.png	mac_Dartpfeil.png	mac_Medaille.png	ok
63896	08/18/2021 15:42:08	1	78	30895	1595709	1	580	1594184	1597659	1	581	1596884	3	1753	inorganic	incorrect	1599441	1	581	1596884	1602957	1	583	1602284	2	370	1603357	1	583	1602284	1608172	1	585	1607684	3	1070	inorganic	correct	1609271	1	585	1607684	1612470	1	586	1610384	4	389	1612887	1	586	1610384	faw_14685.png	faw_Kuechenmaschine.png	faw_Hufeisen.png	ok
63896	08/18/2021 15:42:27	1	79	30895	1617202	1	588	1615784	1619851	1	589	1618483	3	2040	organic	correct	1621934	1	590	1621183	1623600	1	590	1621183	3	950	1624583	1	591	1623883	1627648	1	592	1626583	3	1178	organic	correct	1628848	1	592	1626583	1631814	1	593	1629283	3	479	1632330	1	594	1631983	foi_05187.png	foi_Apfelkuchen.png	foi_Pflanze.png	ok
63896	08/18/2021 15:42:47	1	80	30895	1635996	1	595	1634683	1638661	1	596	1637383	2	1518	organic	incorrect	1640211	1	597	1640083	1643760	1	598	1642783	2	326	1644110	1	598	1642783	1647325	1	599	1645483	3	894	organic	correct	1648241	1	600	1648183	1652024	1	601	1650883	4	348	1652407	1	601	1650883	foc_02664.png	foc_Eule.png	foc_Brombeere.png	ok
63896	08/18/2021 15:43:06	1	81	30895	1656122	1	602	1653583	1659588	1	604	1658983	3	334	organic	correct	1659954	1	604	1658983	1664036	1	605	1661683	4	437	1664503	1	606	1664383	1667435	1	607	1667083	3	786	organic	correct	1668268	1	607	1667083	1671650	1	608	1669783	4	619	1672300	1	608	1669783	moh_07125.png	moh_Muecke.png	moh_Birne.png	ok
63896	08/18/2021 15:43:26	1	82	30895	1675199	1	609	1672483	1677082	1	610	1675183	2	583	organic	incorrect	1677698	1	610	1675183	1681330	1	612	1680583	2	396	1681763	1	612	1680583	1686495	1	614	1685983	3	1470	organic	correct	1687995	1	614	1685983	1690077	1	615	1688683	3	400	1690510	1	615	1688683	mos_23223.png	mos_Traube.png	mos_Eintagsfliege.png	ok
63896	08/18/2021 15:43:47	1	83	30895	1694942	1	617	1694083	1696925	1	618	1696783	3	417	inorganic	incorrect	1697375	1	618	1696783	1701873	1	619	1699483	2	397	1702306	1	620	1702183	1706272	1	621	1704883	3	797	inorganic	correct	1707105	1	621	1704883	1711203	1	623	1710283	4	315	1711553	1	623	1710283	mak_03979.png	mak_Socken.png	mak_Rucksack.png	ok
63896	08/18/2021 15:44:08	1	84	30895	1715885	1	625	1715683	1717685	1	625	1715683	3	396	organic	correct	1718134	1	625	1715683	1722566	1	627	1721083	4	359	1722950	1	627	1721083	1727381	1	629	1726483	2	632	organic	correct	1728048	1	629	1726483	1732413	1	631	1731883	4	346	1732796	1	631	1731883	fok_09860.png	fok_Kaenguruh.png	fok_Palme.png	ok
63896	08/18/2021 15:44:27	1	85	30895	1736695	1	632	1734583	1738378	1	633	1737282	3	326	organic	correct	1738728	1	633	1737282	1742060	1	634	1739982	3	576	1742660	1	634	1739982	1746875	1	636	1745382	3	1093	organic	correct	1747991	1	636	1745382	1751856	1	638	1750782	4	348	1752240	1	638	1750782	foq_17341.png	foq_Fenchel.png	foq_Pinguin.png	ok
63896	08/18/2021 15:44:49	1	86	30895	1755622	1	639	1753482	1758721	1	640	1756182	2	657	inorganic	correct	1759404	1	641	1758882	1764036	1	642	1761582	2	610	1764669	1	643	1764282	1768584	1	644	1766982	3	1752	inorganic	correct	1770383	1	645	1769682	1773316	1	646	1772382	4	361	1773699	1	646	1772382	mae_36426.png	mae_Schach.png	mae_Taschenrechner.png	ok
63896	08/18/2021 15:45:09	1	87	30895	1777864	1	648	1777782	1780480	1	648	1777782	3	253	organic	correct	1780763	1	649	1780482	1784295	1	650	1783182	2	327	1784645	1	650	1783182	1787761	1	651	1785882	3	2185	organic	incorrect	1789977	1	652	1788582	1792609	1	653	1791282	3	430	1793076	1	653	1791282	for_15880.png	for_Mandel.png	for_Seehund.png	ok
63896	08/18/2021 15:45:29	1	88	30895	1797857	1	655	1796682	1799640	1	656	1799382	2	587	inorganic	correct	1800257	1	656	1799382	1803122	1	657	1802082	2	400	1803556	1	657	1802082	1807971	1	659	1807482	3	933	inorganic	correct	1808937	1	659	1807482	1813319	1	661	1812882	4	299	1813652	1	661	1812882	mau_58144.png	mau_Leiter.png	mau_Wasserventil.png	ok
63896	08/18/2021 15:45:48	1	89	30895	1818117	1	662	1815582	1820450	1	663	1818282	3	643	inorganic	incorrect	1821116	1	664	1820982	1824215	1	665	1823682	3	987	1825232	1	665	1823682	1828764	1	666	1826382	3	613	inorganic	correct	1829397	1	667	1829082	1833212	1	668	1831782	4	229	1833479	1	668	1831782	mao_19000.png	mao_Kegel.png	mao_Stempel.png	ok
63896	08/18/2021 15:46:08	1	90	30895	1836961	1	669	1834482	1839743	1	670	1837182	2	552	organic	incorrect	1840326	1	671	1839882	1843859	1	672	1842582	2	327	1844208	1	672	1842582	1848974	1	674	1847982	2	1105	organic	correct	1850106	1	674	1847982	1852922	1	675	1850682	3	1384	1854338	1	676	1853382	fou_18966.png	fou_Feige.png	fou_Schmetterling.png	ok
63896	08/18/2021 15:46:28	1	91	30895	1857021	1	677	1856082	1858970	1	678	1858781	3	342	inorganic	incorrect	1859337	1	678	1858781	1863735	1	679	1861481	2	453	1864218	1	680	1864181	1867301	1	681	1866881	2	818	inorganic	correct	1868167	1	681	1866881	1872066	1	682	1869581	4	425	1872516	1	683	1872281	fac_02970.png	fac_Ohrring.png	fac_Haarbuerste.png	ok
63896	08/18/2021 15:46:51	1	92	30895	1877247	1	684	1874981	1880263	1	685	1877681	2	382	inorganic	correct	1880679	1	686	1880381	1884645	1	687	1883081	4	476	1885145	1	687	1883081	1889410	1	689	1888481	3	539	inorganic	correct	1889976	1	689	1888481	1894791	1	691	1893881	4	659	1895474	1	691	1893881	fan_18894.png	fan_Lampe.png	fan_Klavier.png	ok
63896	08/18/2021 15:47:09	1	93	30895	1899373	1	693	1899281	1901856	1	693	1899281	3	281	organic	correct	1902172	1	694	1901981	1905388	1	695	1904681	4	456	1905871	1	695	1904681	1909320	1	696	1907381	3	507	organic	correct	1909853	1	696	1907381	1913868	1	698	1912781	4	258	1914168	1	698	1912781	foe_08514.png	foe_Adler.png	foe_Tannenzapfen.png	ok
63896	08/18/2021 15:47:30	1	94	30895	1918267	1	700	1918181	1921432	1	701	1920881	3	426	inorganic	incorrect	1921882	1	701	1920881	1925664	1	702	1923581	3	1088	1926781	1	703	1926281	1930779	1	704	1928981	2	510	inorganic	correct	1931312	1	704	1928981	1934744	1	706	1934382	4	428	1935194	1	706	1934382	map_49576.png	map_Pfeife.png	map_Globus.png	ok
63896	08/18/2021 15:47:50	1	95	30895	1938926	1	707	1937082	1941476	1	708	1939781	2	809	organic	incorrect	1942309	1	708	1939781	1944908	1	709	1942482	4	393	1945324	1	710	1945181	1949356	1	711	1947882	0	0	organic	miss	1949356	1	712	1950582	1953505	1	713	1953282	2	312	1953838	1	713	1953282	fov_15193.png	fov_Zucchini.png	fov_Fisch.png	ok
63896	08/18/2021 15:48:09	1	96	30895	1958586	1	714	1955982	1962002	1	716	1961382	3	1092	organic	correct	1963118	1	716	1961382	1967167	1	718	1966782	2	383	1967600	1	718	1966782	1970532	1	719	1969482	3	960	organic	correct	1971515	1	719	1969482	1974764	1	720	1972182	4	417	1975214	1	721	1974882	foa_00426.png	foa_Marienkaefer.png	foa_Aubergine.png	ok
