ID	DateTime	Run	Delayed_Retrieval_Trial	First_Pulse_Time	FaceRecog_OnsetTime	FaceRecog_OnsetTimeUncertainty	FaceRecog_fMRI_Pulse	FaceRecog_fMRI_PulseTime	Assoc_Retrieval_OnsetTime	Assoc_Retrieval_OnsetTimeUncertainty	Assoc_Retrieval_fMRI_Pulse	Assoc_Retrieval_fMRI_PulseTime	Assoc_Retrieval_Pressed_Button	Assoc_Retrieval_RT	Assoc_Retrieval_Response_Category	Assoc_Retrieval_Accuracy	Assoc_Retrieval_Feedback_OnsetTime	Assoc_Retrieval_Feedback_OnsetTimeUncertainty	Assoc_Retrieval_Feedback_fMRI_Pulse	Assoc_Retrieval_Feedback_fMRI_PulseTime	Retrieval_consc_Rating_OnsetTime	Retrieval_consc_Rating_OnsetTimeUncertainty	Retrieval_consc_Rating_fMRI_Pulse	Retrieval_consc_Rating_fMRI_PulseTime	Retrieval_consc_Rating_Pressed_Button	Retrieval_consc_Rating_RT	Retrieval_consc_Rating_Feedback_OnsetTime	Retrieval_consc_Rating_Feedback_OnsetTimeUncertainty	Retrieval_consc_Rating_Feedback_fMRI_Pulse	Retrieval_consc_Rating_Feedback_fMRI_PulseTime	ForcedChoice_OnsetTime	ForcedChoice_OnsetTimeUncertainty	ForcedChoice_fMRI_Pulse	ForcedChoice_fMRI_PulseTime	ForcedChoice_Pressed_Button	ForcedChoice_RT	ForcedChoice_Response_Category	ForcedChoice_Accuracy	ForcedChoice_Feedback_OnsetTime	ForcedChoice_Feedback_OnsetTimeUncertainty	ForcedChoice_Feedback_fMRI_Pulse	ForcedChoice_Feedback_fMRI_PulseTime	Recognition_consc_Rating_OnsetTime	Recognition_consc_Rating_OnsetTimeUncertainty	Recognition_consc_Rating_fMRI_Pulse	Recognition_consc_Rating_fMRI_PulseTime	Recognition_consc_Rating_Pressed_Button	Recognition_consc_Rating_RT	Recognition_consc_Rating_Feedback_OnsetTime	Recognition_consc_Rating_Feedback_OnsetTimeUncertainty	Recognition_consc_Rating_Feedback_fMRI_Pulse	Recognition_consc_Rating_Feedback_fMRI_PulseTime	Presented_Person	Presented_Target	Presented_Lure	TrialStatus
64143	08/25/2021 14:18:23	1	1	304640	317942	1	7	317334	320424	1	8	319480	2	1399	organic	incorrect	321857	1	9	321600	325439	1	10	323720	2	1440	326905	1	11	325841	329555	1	12	327960	2	2209	organic	incorrect	331804	1	13	330080	333437	1	14	332200	3	1193	334653	1	15	334320	moe_02012.png	moe_Pommes.png	moe_Waschbaer.png	ok
64143	08/25/2021 14:18:42	1	2	304640	337435	1	16	336440	339385	1	17	338560	3	985	organic	correct	340401	1	17	338560	344400	1	19	342800	4	1451	345882	1	20	344920	348115	1	21	347040	2	1049	organic	correct	349198	1	22	349160	351914	1	23	351280	4	493	352430	1	23	351280	mom_59361.png	mom_Loewe.png	mom_Ei.png	ok
64143	08/25/2021 14:19:03	1	3	304640	356512	1	25	355520	358128	1	26	357639	2	1578	inorganic	correct	359728	1	26	357639	361710	1	27	359760	4	975	362710	1	28	361880	366875	1	30	366120	2	537	inorganic	correct	367442	1	30	366120	372407	1	32	370360	4	253	372690	1	33	372479	maw_04767.png	maw_Schlauchboot.png	maw_Pingpongschlaeger.png	ok
64143	08/25/2021 14:19:24	1	4	304640	377255	1	35	376720	380037	1	36	378840	2	1144	organic	incorrect	381220	1	37	380959	384636	1	38	383080	2	1056	385719	1	39	385200	389101	1	40	387319	2	1974	organic	correct	391100	1	41	389439	394449	1	43	393680	3	977	395449	1	43	393680	mou_01862.png	mou_Croissant.png	mou_Kraehe.png	ok
64143	08/25/2021 14:19:45	1	5	304640	398998	1	45	397919	402497	1	47	402160	3	691	organic	correct	403213	1	47	402160	406462	1	49	406400	2	538	407028	1	49	406400	410994	1	51	410639	2	1341	organic	correct	412360	1	51	410639	414626	1	52	412759	0	0	414626	1	54	417000	foi_03389.png	foi_Apfelkuchen.png	foi_Pflanze.png	ok
64143	08/25/2021 14:20:07	1	6	304640	419441	1	55	419119	422340	1	56	421239	2	769	organic	incorrect	423140	1	56	421239	426988	1	58	425479	2	709	427721	1	59	427599	432170	1	61	431840	3	1731	organic	correct	433936	1	61	431840	437301	1	63	436079	4	719	438051	1	63	436079	fot_00797.png	fot_Taube.png	fot_Salat.png	ok
64143	08/25/2021 14:20:29	1	7	304640	441850	1	65	440320	444965	1	67	444559	2	1630	inorganic	correct	446632	1	67	444559	449414	1	69	448799	2	936	450380	1	69	448799	453379	1	71	453039	3	2435	inorganic	correct	455845	1	72	455160	458961	1	73	457279	4	630	459627	1	74	459399	mau_49693.png	mau_Wasserventil.png	mau_Leiter.png	ok
64143	08/25/2021 14:20:51	1	8	304640	463692	1	76	463639	466858	1	77	465759	2	332	inorganic	correct	467225	1	77	465759	470840	1	79	469999	4	350	471223	1	79	469999	474822	1	81	474239	2	902	inorganic	correct	475755	1	81	474239	480437	1	83	478479	4	395	480870	1	84	480599	fai_07494.png	fai_Foehn.png	fai_Kommode.png	ok
64143	08/25/2021 14:21:09	1	9	304640	485302	1	86	484839	487568	1	87	486959	2	1627	inorganic	correct	489217	1	88	489079	491416	1	89	491199	2	883	492333	1	89	491199	494965	1	90	493319	2	2145	inorganic	correct	497131	1	91	495439	499714	1	93	499679	4	493	500230	1	93	499679	mal_04470.png	mal_Drucker.png	mal_Kugelschreiber.png	ok
64143	08/25/2021 14:21:29	1	10	304640	503912	1	94	501799	506845	1	96	506039	3	1106	organic	correct	507977	1	96	506039	510410	1	98	510278	4	950	511393	1	98	510278	514625	1	100	514519	2	544	organic	correct	515192	1	100	514519	519823	1	102	518758	4	560	520407	1	102	518758	moj_11821.png	moj_Walnuss.png	moj_Blatt.png	ok
64143	08/25/2021 14:21:51	1	11	304640	523955	1	104	522999	526938	1	105	525118	3	1444	inorganic	incorrect	528421	1	106	527239	531370	1	107	529359	2	807	532203	1	108	531479	535635	1	109	533598	2	1905	inorganic	correct	537567	1	110	535719	540283	1	112	539958	4	265	540583	1	112	539958	fac_02146.png	fac_Ohrring.png	fac_Haarbuerste.png	ok
64143	08/25/2021 14:22:10	1	12	304640	545448	1	114	544199	548164	1	115	546319	3	1459	inorganic	incorrect	549647	1	116	548438	551563	1	117	550558	3	1300	552896	1	118	552679	555361	1	119	554799	3	1728	inorganic	correct	557111	1	120	556918	560676	1	121	559039	4	931	561643	1	122	561159	map_41499.png	map_Globus.png	map_Pfeife.png	ok
64143	08/25/2021 14:22:30	1	13	304640	564575	1	123	563278	566608	1	124	565398	2	935	organic	incorrect	567574	1	125	567519	571423	1	126	569639	3	1476	572922	1	127	571758	576071	1	129	575999	2	2589	organic	correct	578704	1	130	578118	580420	1	131	580238	4	1455	581902	1	131	580238	foc_02157.png	foc_Brombeere.png	foc_Eule.png	ok
64143	08/25/2021 14:22:51	1	14	304640	584118	1	132	582358	585884	1	133	584479	3	729	organic	correct	586651	1	134	586598	590550	1	135	588718	4	1187	591766	1	136	590838	595714	1	138	595078	2	552	organic	correct	596298	1	138	595078	601063	1	140	599319	4	1237	602329	1	141	601438	for_15187.png	for_Seehund.png	for_Mandel.png	ok
64143	08/25/2021 14:23:12	1	15	304640	605844	1	143	605678	608160	1	144	607799	2	1427	organic	incorrect	609610	1	144	607799	613392	1	146	612038	2	321	613742	1	146	612038	616974	1	148	616279	3	1655	organic	correct	618657	1	149	618398	621856	1	150	620518	3	383	622272	1	150	620518	mos_20953.png	mos_Eintagsfliege.png	mos_Traube.png	ok
64143	08/25/2021 14:23:31	1	16	304640	626371	1	152	624758	628553	1	153	626878	3	1707	inorganic	incorrect	630286	1	154	628998	633285	1	156	633238	2	1371	634685	1	156	633238	636901	1	157	635358	3	1495	inorganic	correct	638417	1	158	637478	641016	1	159	639598	4	704	641749	1	160	641718	fab_06018.png	fab_Staubsauger.png	fab_Kinderwagen.png	ok
64143	08/25/2021 14:23:50	1	17	304640	645214	1	161	643838	648030	1	162	645958	2	2021	organic	incorrect	650079	1	163	648078	651612	1	164	650198	2	773	652412	1	165	652318	656511	1	166	654438	2	1845	organic	correct	658377	1	167	656558	660526	1	168	658678	2	1247	661809	1	169	660798	fov_15046.png	fov_Zucchini.png	fov_Fisch.png	ok
64143	08/25/2021 14:24:13	1	18	304640	665024	1	170	662917	668240	1	172	667158	3	236	organic	correct	668506	1	172	667158	673172	1	174	671397	4	508	673705	1	175	673518	677287	1	176	675638	3	1219	organic	correct	678553	1	177	677757	682552	1	179	681998	4	369	682952	1	179	681998	fok_09378.png	fok_Palme.png	fok_Kaenguruh.png	ok
64143	08/25/2021 14:24:33	1	19	304640	687250	1	181	686237	690132	1	182	688358	2	1945	organic	incorrect	692098	1	183	690478	694831	1	185	694717	3	1766	696630	1	185	694717	699363	1	187	698958	2	2366	organic	incorrect	701762	1	188	701077	703578	1	189	703197	3	2166	705777	1	190	705318	foq_16799.png	foq_Fenchel.png	foq_Pinguin.png	ok
64143	08/25/2021 14:24:53	1	20	304640	707027	1	190	705318	709393	1	191	707438	2	1175	organic	incorrect	710592	1	192	709557	713608	1	193	711678	2	817	714458	1	194	713798	718373	1	196	718037	3	2123	organic	correct	720522	1	197	720157	722138	1	197	720157	4	864	723038	1	198	722278	mon_65798.png	mon_Kartoffel.png	mon_Fuchs.png	ok
64143	08/25/2021 14:25:12	1	21	304640	727203	1	200	726517	730252	1	201	728638	2	254	inorganic	correct	730535	1	201	728638	733618	1	203	732877	4	594	734234	1	203	732877	738300	1	205	737118	3	1409	inorganic	correct	739732	1	206	739237	743314	1	207	741357	4	932	744281	1	208	743477	fap_16329.png	fap_Knopf.png	fap_Kissen.png	ok
64143	08/25/2021 14:25:30	1	22	304640	746713	1	209	745598	749412	1	210	747717	3	872	organic	correct	750312	1	211	749837	752861	1	212	751957	2	1757	754644	1	213	754077	756327	1	214	756197	3	1728	organic	correct	758076	1	214	756197	760742	1	216	760438	4	1235	762008	1	216	760438	mol_07679.png	mol_Schimpanse.png	mol_Pizza.png	ok
64143	08/25/2021 14:25:50	1	23	304640	764907	1	218	764677	767690	1	219	766797	2	1361	inorganic	correct	769072	1	220	768918	772788	1	221	771037	3	917	773754	1	222	773157	776637	1	223	775277	3	1246	inorganic	correct	777919	1	224	777397	780685	1	225	779517	4	930	781652	1	225	779517	fal_07906.png	fal_Buegeleisen.png	fal_Korb.png	ok
64143	08/25/2021 14:26:12	1	24	304640	784567	1	227	783757	787883	1	228	785877	2	1843	organic	incorrect	789749	1	229	787997	792398	1	231	792236	2	277	792698	1	231	792236	797463	1	233	796477	2	918	organic	correct	798413	1	233	796477	801295	1	235	800717	4	860	802178	1	235	800717	mot_69374.png	mot_Hotdog.png	mot_Bison.png	ok
64143	08/25/2021 14:26:30	1	25	304640	806310	1	237	804957	808093	1	238	807077	3	2278	inorganic	incorrect	810392	1	239	809197	811775	1	240	811317	2	329	812141	1	240	811317	816023	1	242	815556	2	1710	inorganic	correct	817756	1	243	817677	820172	1	244	819797	4	1070	821271	1	244	819797	mao_11634.png	mao_Kegel.png	mao_Stempel.png	ok
64143	08/25/2021 14:26:47	1	26	304640	824670	1	246	824036	826736	1	247	826157	2	1540	inorganic	correct	828302	1	248	828277	830302	1	248	828277	2	1025	831351	1	249	830396	833751	1	250	832516	2	1044	inorganic	correct	834817	1	251	834637	837566	1	252	836757	4	1005	838599	1	252	836757	fan_17286.png	fan_Lampe.png	fan_Klavier.png	ok
64143	08/25/2021 14:27:09	1	27	304640	841681	1	254	840997	845197	1	255	843117	2	320	inorganic	correct	845547	1	256	845236	850245	1	258	849477	4	734	851011	1	258	849477	855210	1	260	853716	3	938	inorganic	correct	856176	1	261	855836	858892	1	262	857957	4	986	859908	1	262	857957	mat_23275.png	mat_Feuerzeug.png	mat_Helm.png	ok
64143	08/25/2021 14:27:29	1	28	304640	863924	1	264	862196	866939	1	266	866437	3	590	organic	correct	867556	1	266	866437	871121	1	268	870676	4	579	871754	1	268	870676	874820	1	269	872796	2	1669	organic	correct	876536	1	270	874917	879202	1	272	879156	4	1387	880618	1	272	879156	mob_00760.png	mob_Kiwi.png	mob_Igel.png	ok
64143	08/25/2021 14:27:51	1	29	304640	883984	1	274	883397	886716	1	275	885516	2	1570	inorganic	correct	888315	1	276	887636	890448	1	277	889757	3	1144	891614	1	277	889757	895746	1	279	893996	2	2397	inorganic	incorrect	898179	1	280	896116	900561	1	282	900356	2	372	900961	1	282	900356	fax_14883.png	fax_Klebeband.png	fax_Fahrrad.png	ok
64143	08/25/2021 14:28:10	1	30	304640	905593	1	284	904596	908275	1	285	906716	2	1459	organic	incorrect	909758	1	286	908836	913390	1	288	913077	2	1142	914557	1	288	913077	917189	1	289	915196	2	1574	organic	correct	918788	1	290	917316	920821	1	291	919436	3	1399	922271	1	292	921556	fou_17118.png	fou_Schmetterling.png	fou_Feige.png	ok
64143	08/25/2021 14:28:32	1	31	304640	925020	1	293	923676	928535	1	295	927916	3	1244	organic	correct	929801	1	295	927916	932467	1	297	932156	2	1492	933983	1	297	932156	937116	1	299	936396	2	2321	organic	incorrect	939465	1	300	938516	942164	1	301	940636	4	2231	944430	1	302	942756	mog_03090.png	mog_Fledermaus.png	mog_Pilz.png	ok
64143	08/25/2021 14:28:52	1	32	304640	947029	1	304	946996	949028	1	304	946996	3	1781	organic	correct	950844	1	305	949116	954076	1	307	953356	2	504	954610	1	307	953356	957825	1	309	957596	3	1638	organic	correct	959491	1	309	957596	961841	1	310	959715	2	1168	963040	1	311	961836	moh_06446.png	moh_Birne.png	moh_Muecke.png	ok
64143	08/25/2021 14:29:11	1	33	304640	966339	1	313	966076	968505	1	314	968195	2	1047	inorganic	correct	969588	1	314	968195	972404	1	315	970316	4	950	973403	1	316	972436	977235	1	318	976675	2	747	inorganic	correct	978018	1	318	976675	981284	1	320	980916	4	893	982200	1	320	980916	mae_01010.png	mae_Taschenrechner.png	mae_Schach.png	ok
64143	08/25/2021 14:29:33	1	34	304640	985349	1	322	985155	987415	1	323	987276	3	1831	organic	correct	989281	1	323	987276	992080	1	325	991515	3	797	992913	1	325	991515	996862	1	327	995756	2	1586	organic	incorrect	998478	1	328	997875	1002127	1	329	999995	4	1755	1003910	1	330	1002116	foj_08220.png	foj_Rose.png	foj_Waffel.png	ok
64143	08/25/2021 14:29:52	1	35	304640	1007225	1	332	1006355	1008858	1	333	1008475	3	1405	organic	correct	1010291	1	333	1008475	1013106	1	335	1012716	3	842	1013973	1	335	1012716	1017922	1	337	1016955	2	2425	organic	correct	1020387	1	338	1019076	1022787	1	339	1021195	2	1251	1024086	1	340	1023315	foe_08236.png	foe_Adler.png	foe_Tannenzapfen.png	ok
64143	08/25/2021 14:30:12	1	36	304640	1026902	1	341	1025435	1030067	1	343	1029675	2	784	inorganic	correct	1030884	1	343	1029675	1033999	1	345	1033915	4	1406	1035432	1	345	1033915	1038531	1	347	1038155	3	975	inorganic	correct	1039531	1	347	1038155	1042463	1	349	1042396	4	1148	1043646	1	349	1042396	maj_01545.png	maj_Krawatte.png	maj_Computermaus.png	ok
64143	08/25/2021 14:30:33	1	37	304640	1046295	1	350	1044515	1049278	1	352	1048755	3	2019	organic	correct	1051327	1	353	1050876	1054559	1	354	1052995	2	414	1055009	1	354	1052995	1058258	1	356	1057235	3	1851	organic	incorrect	1060141	1	357	1059355	1062157	1	358	1061475	2	2602	1064789	1	359	1063595	foa_00207.png	foa_Marienkaefer.png	foa_Aubergine.png	ok
64143	08/25/2021 14:30:53	1	38	304640	1067388	1	360	1065715	1069204	1	361	1067835	2	708	inorganic	correct	1069954	1	361	1067835	1073869	1	363	1072075	4	1601	1075502	1	364	1074195	1077951	1	365	1076315	2	549	inorganic	correct	1078534	1	366	1078435	1082616	1	367	1080555	4	350	1082999	1	368	1082675	mak_00987.png	mak_Rucksack.png	mak_Socken.png	ok
64143	08/25/2021 14:31:13	1	39	304640	1087165	1	370	1086915	1089797	1	371	1089035	2	734	organic	incorrect	1090564	1	371	1089035	1093229	1	372	1091155	2	2384	1095645	1	374	1095395	1097695	1	375	1097514	3	1409	organic	correct	1099127	1	375	1097514	1102759	1	377	1101755	4	1218	1104009	1	378	1103875	mof_02408.png	mof_Spaghetti.png	mof_Hahn.png	ok
64143	08/25/2021 14:31:33	1	40	304640	1107475	1	379	1105994	1110307	1	381	1110235	2	2345	inorganic	correct	1112689	1	382	1112355	1115255	1	383	1114475	4	506	1115788	1	383	1114475	1118621	1	384	1116595	3	875	inorganic	correct	1119537	1	385	1118715	1122719	1	386	1120834	4	767	1123519	1	387	1122955	faj_07783.png	faj_Schuh.png	faj_Parfuem.png	ok
64143	08/25/2021 14:31:53	1	41	304640	1127868	1	389	1127195	1130100	1	390	1129314	2	2318	inorganic	correct	1132449	1	391	1131435	1134332	1	392	1133555	3	1374	1135732	1	393	1135674	1139214	1	394	1137794	3	1987	inorganic	incorrect	1141230	1	395	1139915	1144312	1	397	1144154	3	324	1144662	1	397	1144154	fat_12032.png	fat_Einkaufswagen.png	fat_Kleiderbuegel.png	ok
64143	08/25/2021 14:32:11	1	42	304640	1147828	1	398	1146275	1149677	1	399	1148395	3	1182	inorganic	incorrect	1150893	1	400	1150515	1153126	1	401	1152634	2	768	1153925	1	401	1152634	1156541	1	402	1154755	2	1930	inorganic	correct	1158507	1	403	1156875	1160707	1	404	1158994	4	466	1161206	1	405	1161114	mai_06530.png	mai_Gewehr.png	mai_Auto.png	ok
64143	08/25/2021 14:32:34	1	43	304640	1165721	1	407	1165355	1168221	1	408	1167474	3	757	organic	correct	1169020	1	408	1167474	1172836	1	410	1171715	4	783	1173652	1	410	1171715	1177917	1	412	1175954	2	1974	organic	correct	1179917	1	413	1178074	1183349	1	415	1182314	3	2434	1185815	1	416	1184434	fop_00621.png	fop_Koala.png	fop_Mango.png	ok
64143	08/25/2021 14:32:53	1	44	304640	1188547	1	417	1186553	1190463	1	418	1188675	2	967	inorganic	correct	1191463	1	419	1190793	1194029	1	420	1192914	4	427	1194478	1	420	1192914	1198310	1	422	1197154	3	847	inorganic	correct	1199193	1	422	1197154	1203359	1	424	1201394	4	558	1203942	1	425	1203514	mas_41366.png	mas_Bueroklammer.png	mas_Tisch.png	ok
64143	08/25/2021 14:33:14	1	45	304640	1207357	1	426	1205633	1210756	1	428	1209873	3	1101	inorganic	incorrect	1211889	1	428	1209873	1215638	1	430	1214113	2	1622	1217304	1	431	1216234	1220936	1	433	1220473	2	1370	inorganic	correct	1222336	1	433	1220473	1224801	1	435	1224713	4	1498	1226334	1	435	1224713	far_00736.png	far_Giesskanne.png	far_Heissluftballon.png	ok
64143	08/25/2021 14:33:33	1	46	304640	1228500	1	436	1226834	1231599	1	438	1231073	2	277	inorganic	correct	1231899	1	438	1231073	1236298	1	440	1235313	4	344	1236664	1	440	1235313	1240063	1	442	1239553	2	758	inorganic	correct	1240846	1	442	1239553	1244112	1	444	1243794	4	1080	1245228	1	444	1243794	mac_59169.png	mac_Dartpfeil.png	mac_Medaille.png	ok
64143	08/25/2021 14:33:55	1	47	304640	1247527	1	445	1245913	1250759	1	447	1250153	3	1013	inorganic	incorrect	1251809	1	447	1250153	1254475	1	449	1254393	2	921	1255424	1	449	1254393	1259240	1	451	1258632	3	1851	inorganic	correct	1261123	1	452	1260753	1264638	1	453	1262873	3	1284	1265954	1	454	1264992	faw_14215.png	faw_Hufeisen.png	faw_Kuechenmaschine.png	ok
64143	08/25/2021 14:34:17	1	48	304640	1269986	1	456	1269233	1272652	1	457	1271353	2	2143	inorganic	correct	1274818	1	458	1273472	1276917	1	459	1275593	2	965	1277917	1	460	1277714	1281049	1	461	1279833	3	1623	inorganic	correct	1282699	1	462	1281952	1286514	1	464	1286193	3	1414	1287963	1	464	1286193	fag_06539.png	fag_Geschenk.png	fag_Portemonnaie.png	ok
64143	08/25/2021 14:34:38	1	49	304640	1291179	1	466	1290432	1294528	1	467	1292553	3	359	organic	correct	1294911	1	468	1294673	1298143	1	469	1296792	3	1508	1299676	1	470	1298913	1303342	1	472	1303152	3	1420	organic	correct	1304791	1	472	1303152	1308790	1	474	1307393	4	1163	1309989	1	475	1309513	mom_59641.png	mom_Ei.png	mom_Loewe.png	ok
64143	08/25/2021 14:34:59	1	50	304640	1312438	1	476	1311632	1315288	1	477	1313752	2	2242	organic	incorrect	1317570	1	478	1315873	1319053	1	479	1317993	3	902	1320003	1	479	1317993	1324018	1	481	1322232	2	2331	organic	correct	1326384	1	482	1324353	1328750	1	484	1328592	4	1188	1329966	1	484	1328592	moe_23630.png	moe_Waschbaer.png	moe_Pommes.png	ok
64143	08/25/2021 14:35:20	1	51	304640	1333048	1	486	1332833	1335064	1	487	1334952	2	2409	inorganic	correct	1337497	1	488	1337072	1339913	1	489	1339192	2	388	1340329	1	489	1339192	1345061	1	491	1343433	3	1485	inorganic	correct	1346577	1	492	1345552	1349743	1	493	1347672	4	444	1350209	1	494	1349793	maw_22459.png	maw_Pingpongschlaeger.png	maw_Schlauchboot.png	ok
64143	08/25/2021 14:35:39	1	52	304640	1354708	1	496	1354032	1356524	1	497	1356153	3	1879	organic	correct	1358440	1	498	1358272	1359956	1	498	1358272	2	922	1360905	1	499	1360392	1364304	1	500	1362512	3	2118	organic	correct	1366470	1	501	1364632	1369736	1	503	1368872	2	975	1370735	1	503	1368872	mou_06524.png	mou_Kraehe.png	mou_Croissant.png	ok
64143	08/25/2021 14:36:02	1	53	304640	1373518	1	505	1373112	1376517	1	506	1375232	0	0	inorganic	miss	1376517	1	507	1377352	1381365	1	508	1379472	2	1013	1382415	1	509	1381592	1386363	1	511	1385832	2	1291	inorganic	correct	1387680	1	511	1385832	1390962	1	513	1390072	4	413	1391412	1	513	1390072	mau_58144.png	mau_Leiter.png	mau_Wasserventil.png	ok
64143	08/25/2021 14:36:23	1	54	304640	1396093	1	515	1394312	1397726	1	516	1396432	3	946	organic	correct	1398709	1	517	1398552	1402625	1	518	1400672	4	1564	1404224	1	519	1402791	1406923	1	520	1404912	2	760	organic	correct	1407706	1	521	1407032	1412205	1	523	1411271	4	566	1412805	1	523	1411271	fot_06092.png	fot_Salat.png	fot_Taube.png	ok
64143	08/25/2021 14:36:41	1	55	304640	1417420	1	525	1415512	1419669	1	526	1417631	3	2039	inorganic	incorrect	1421735	1	527	1419751	1423334	1	528	1421872	2	924	1424284	1	529	1423992	1426883	1	530	1426111	2	1522	inorganic	correct	1428433	1	531	1428232	1431598	1	532	1430352	3	328	1431948	1	532	1430352	fai_07637.png	fai_Kommode.png	fai_Foehn.png	ok
64143	08/25/2021 14:36:59	1	56	304640	1435214	1	534	1434591	1436780	1	535	1436712	2	2152	organic	incorrect	1438962	1	536	1438832	1441062	1	537	1440951	2	1754	1442844	1	537	1440951	1444510	1	538	1443071	3	1411	organic	incorrect	1445943	1	539	1445192	1449942	1	541	1449431	3	1869	1451841	1	542	1451551	foi_05187.png	foi_Pflanze.png	foi_Apfelkuchen.png	ok
64143	08/25/2021 14:37:20	1	57	304640	1454007	1	543	1453672	1455707	1	543	1453672	2	569	inorganic	correct	1456306	1	544	1455792	1460172	1	546	1460031	4	440	1460638	1	546	1460031	1464770	1	548	1464271	3	1162	inorganic	correct	1465970	1	548	1464271	1470035	1	550	1468512	4	1892	1471951	1	551	1470633	map_49576.png	map_Pfeife.png	map_Globus.png	ok
64143	08/25/2021 14:37:41	1	58	304640	1474567	1	552	1472751	1476916	1	553	1474871	2	2399	inorganic	correct	1479349	1	555	1479111	1480815	1	555	1479111	4	760	1481598	1	556	1481231	1485530	1	558	1485472	3	685	inorganic	correct	1486246	1	558	1485472	1490278	1	560	1489711	4	1465	1491778	1	560	1489711	mal_20552.png	mal_Kugelschreiber.png	mal_Drucker.png	ok
64143	08/25/2021 14:38:01	1	59	304640	1495410	1	562	1493951	1498259	1	564	1498191	2	1566	organic	incorrect	1499858	1	564	1498191	1501608	1	565	1500311	2	1280	1502924	1	566	1502431	1506506	1	567	1504551	3	1131	organic	correct	1507672	1	568	1506671	1511688	1	570	1510911	4	531	1512254	1	570	1510911	moj_11860.png	moj_Blatt.png	moj_Walnuss.png	ok
64143	08/25/2021 14:38:23	1	60	304640	1515403	1	572	1515151	1517252	1	572	1515151	2	1746	inorganic	correct	1519035	1	573	1517271	1521901	1	575	1521511	2	1673	1523600	1	575	1521511	1526999	1	577	1525751	3	1682	inorganic	correct	1528715	1	578	1527871	1532164	1	580	1532111	3	920	1533114	1	580	1532111	fac_02970.png	fac_Haarbuerste.png	fac_Ohrring.png	ok
64143	08/25/2021 14:38:42	1	61	304640	1537279	1	582	1536351	1540078	1	583	1538471	3	1800	organic	correct	1541911	1	584	1540591	1544627	1	585	1542711	2	1520	1546176	1	586	1544831	1548592	1	587	1546951	3	1813	organic	correct	1550425	1	588	1549071	1552341	1	589	1551191	2	1024	1553390	1	590	1553311	mos_23223.png	mos_Traube.png	mos_Eintagsfliege.png	ok
64143	08/25/2021 14:39:01	1	62	304640	1556706	1	591	1555430	1559472	1	592	1557551	2	2137	organic	incorrect	1561637	1	593	1559671	1563120	1	594	1561791	2	822	1563987	1	595	1563910	1567568	6	596	1566031	2	1816	organic	correct	1569418	1	597	1568151	1571451	1	598	1570270	4	388	1571867	1	598	1570270	foc_02664.png	foc_Eule.png	foc_Brombeere.png	ok
64143	08/25/2021 14:39:21	1	63	304640	1575666	1	600	1574511	1578648	1	601	1576631	2	2207	organic	incorrect	1580881	1	602	1578750	1582397	1	603	1580870	2	593	1583014	1	603	1580870	1586729	1	605	1585111	3	1619	organic	correct	1588378	1	606	1587230	1591727	1	608	1591471	4	351	1592110	1	608	1591471	for_15880.png	for_Mandel.png	for_Seehund.png	ok
64143	08/25/2021 14:39:38	1	64	304640	1595093	1	609	1593590	1597259	1	610	1595710	2	350	inorganic	correct	1597642	1	610	1595710	1600791	1	612	1599951	4	369	1601191	1	612	1599951	1605189	1	614	1604190	3	786	inorganic	correct	1606006	1	614	1604190	1608938	1	616	1608430	4	1130	1610104	1	616	1608430	fab_06286.png	fab_Kinderwagen.png	fab_Staubsauger.png	ok
64143	08/25/2021 14:39:59	1	65	304640	1612970	1	618	1612670	1615286	1	619	1614791	3	736	organic	correct	1616069	1	619	1614791	1618801	1	620	1616910	3	1144	1619968	1	621	1619030	1623317	1	623	1623271	2	1642	organic	correct	1624983	1	623	1623271	1628881	1	625	1627510	4	1311	1630231	1	626	1629631	foq_17341.png	foq_Pinguin.png	foq_Fenchel.png	ok
64143	08/25/2021 14:40:18	1	66	304640	1633213	1	627	1631750	1635429	1	628	1633870	2	1830	organic	incorrect	1637295	1	629	1635990	1640194	1	630	1638111	2	2222	1642443	1	632	1642350	1645076	1	633	1644470	3	1792	organic	correct	1646892	1	634	1646591	1648708	1	634	1646591	4	399	1649141	1	635	1648710	fok_09860.png	fok_Kaenguruh.png	fok_Palme.png	ok
64143	08/25/2021 14:40:38	1	67	304640	1652590	1	636	1650830	1654223	1	637	1652950	2	770	organic	incorrect	1655023	1	637	1652950	1658271	1	639	1657190	2	2066	1660371	1	640	1659310	1662370	1	641	1661431	2	2369	organic	correct	1664786	1	642	1663550	1666935	1	643	1665670	2	621	1667585	1	643	1665670	fov_15193.png	fov_Fisch.png	fov_Zucchini.png	ok
64143	08/25/2021 14:40:58	1	68	304640	1672183	1	646	1672030	1674616	1	647	1674150	3	1831	organic	correct	1676482	1	648	1676270	1678798	1	649	1678390	3	1289	1680114	1	649	1678390	1684029	1	651	1682630	3	1595	organic	correct	1685645	1	652	1684749	1688395	1	653	1686870	2	2418	1690844	1	654	1688990	mon_69587.png	mon_Fuchs.png	mon_Kartoffel.png	ok
64143	08/25/2021 14:41:19	1	69	304640	1692760	1	655	1691110	1695859	1	657	1695350	3	2507	organic	correct	1698391	1	658	1697470	1699757	1	659	1699590	3	1525	1701307	1	659	1699590	1704472	1	661	1703830	3	1332	organic	correct	1705839	1	661	1703830	1709404	1	663	1708069	4	1775	1711220	1	664	1710190	mol_11363.png	mol_Pizza.png	mol_Schimpanse.png	ok
64143	08/25/2021 14:41:39	1	70	304640	1713386	1	665	1712310	1715685	1	666	1714430	2	996	inorganic	correct	1716718	1	667	1716549	1720467	1	668	1718670	2	842	1721333	1	669	1720790	1725649	1	671	1725029	2	1072	inorganic	correct	1726748	1	671	1725029	1729781	1	673	1729270	3	1524	1731330	1	673	1729270	fap_17119.png	fap_Kissen.png	fap_Knopf.png	ok
64143	08/25/2021 14:41:59	1	71	304640	1733296	1	674	1731389	1735162	1	675	1733509	3	1846	organic	correct	1737045	1	676	1735630	1739011	1	677	1737750	2	479	1739527	1	677	1737750	1744092	1	679	1741990	2	1378	organic	correct	1745492	1	680	1744110	1748591	1	682	1748349	3	452	1749074	1	682	1748349	mot_69770.png	mot_Bison.png	mot_Hotdog.png	ok
64143	08/25/2021 14:42:20	1	72	304640	1753839	1	684	1752590	1755888	1	685	1754709	3	1973	inorganic	incorrect	1757888	1	686	1756829	1760937	1	687	1758950	2	810	1761786	1	688	1761070	1765935	1	690	1765309	3	1112	inorganic	correct	1767068	1	690	1765309	1769817	1	692	1769549	2	1496	1771350	1	692	1769549	fal_07977.png	fal_Korb.png	fal_Buegeleisen.png	ok
64143	08/25/2021 14:42:38	1	73	304640	1774649	1	694	1773789	1776265	1	695	1775910	2	1778	inorganic	correct	1778064	1	696	1778029	1781330	1	697	1780149	4	946	1782313	1	698	1782270	1785245	1	699	1784389	3	1122	inorganic	correct	1786395	1	699	1784389	1788894	1	701	1788629	4	798	1789727	1	701	1788629	mao_19000.png	mao_Stempel.png	mao_Kegel.png	ok
64143	08/25/2021 14:42:57	1	74	304640	1792576	1	702	1790750	1794942	1	703	1792869	2	224	inorganic	correct	1795192	1	704	1794989	1799990	1	706	1799230	4	601	1800623	1	706	1799230	1803389	1	707	1801349	3	795	inorganic	correct	1804205	1	708	1803469	1807188	1	709	1805589	4	320	1807538	1	709	1805589	fan_18894.png	fan_Klavier.png	fan_Lampe.png	ok
64143	08/25/2021 14:43:17	1	75	304640	1811919	1	711	1809829	1814185	1	713	1814070	2	1667	inorganic	correct	1815885	1	713	1814070	1817867	1	714	1816189	2	1928	1819833	1	715	1818309	1822699	1	717	1822549	2	856	inorganic	correct	1823582	1	717	1822549	1827397	1	719	1826789	4	659	1828081	1	719	1826789	mat_23754.png	mat_Helm.png	mat_Feuerzeug.png	ok
64143	08/25/2021 14:43:37	1	76	304640	1831596	1	721	1831029	1833912	1	722	1833149	3	528	organic	correct	1834462	1	722	1833149	1837461	1	724	1837389	2	717	1838210	1	724	1837389	1841426	1	725	1839509	2	1068	organic	correct	1842526	1	726	1841629	1845991	1	728	1845869	4	1479	1847507	1	728	1845869	mob_22833.png	mob_Igel.png	mob_Kiwi.png	ok
64143	08/25/2021 14:43:57	1	77	304640	1851206	1	730	1850109	1853772	1	731	1852229	3	2372	organic	correct	1856171	1	732	1854348	1857304	1	733	1856469	2	1317	1858687	1	734	1858589	1862069	1	735	1860708	2	1819	organic	correct	1863918	1	736	1862829	1866584	1	737	1864949	2	1768	1868384	1	738	1867069	moh_07125.png	moh_Muecke.png	moh_Birne.png	ok
64143	08/25/2021 14:44:16	1	78	304640	1871616	1	740	1871309	1873815	1	741	1873429	3	2637	organic	correct	1876481	1	742	1875549	1877664	1	742	1875549	2	1916	1879613	1	743	1877668	1881179	1	744	1879789	3	1253	organic	correct	1882462	1	745	1881909	1886161	1	746	1884028	4	497	1886694	1	747	1886148	fou_18966.png	fou_Feige.png	fou_Schmetterling.png	ok
64143	08/25/2021 14:44:37	1	79	304640	1890743	1	749	1890389	1893092	1	750	1892508	2	908	inorganic	correct	1894025	1	750	1892508	1897590	1	752	1896749	2	785	1898407	1	752	1896749	1901506	1	754	1900988	2	2395	inorganic	correct	1903922	1	755	1903109	1906937	1	756	1905229	2	508	1907470	1	757	1907348	fax_15310.png	fax_Fahrrad.png	fax_Klebeband.png	ok
64143	08/25/2021 14:44:57	1	80	304640	1911336	1	758	1909468	1914351	1	760	1913709	3	399	organic	correct	1914785	1	760	1913709	1918483	1	762	1917948	4	1247	1919766	1	762	1917948	1923365	1	764	1922188	3	959	organic	correct	1924348	1	765	1924308	1928047	1	766	1926428	4	650	1928730	1	767	1928549	mog_03277.png	mog_Pilz.png	mog_Fledermaus.png	ok
64143	08/25/2021 14:45:20	1	81	304640	1931412	1	768	1930668	1933945	1	769	1932788	2	2368	inorganic	correct	1936344	1	770	1934908	1939093	1	771	1937028	2	1677	1940792	1	772	1939148	1943625	1	774	1943389	2	1726	inorganic	correct	1945374	1	774	1943389	1948890	1	776	1947628	4	499	1949423	1	776	1947628	mae_36426.png	mae_Schach.png	mae_Taschenrechner.png	ok
64143	08/25/2021 14:45:39	1	82	304640	1954138	1	779	1953988	1955704	1	779	1953988	3	1823	organic	correct	1957587	1	780	1956108	1960036	1	781	1958228	2	1823	1961885	1	782	1960348	1963901	1	783	1962468	2	1602	organic	correct	1965534	1	784	1964588	1968450	1	785	1966708	4	426	1968900	1	786	1968828	foj_08937.png	foj_Waffel.png	foj_Rose.png	ok
64143	08/25/2021 14:45:59	1	83	304640	1973665	1	788	1973068	1975847	1	789	1975188	3	2261	inorganic	incorrect	1978146	1	790	1977308	1980829	1	791	1979428	2	844	1981695	1	792	1981548	1984578	1	793	1983668	2	1484	inorganic	correct	1986094	1	794	1985788	1989809	1	795	1987908	3	758	1990592	1	796	1990028	maj_01546.png	maj_Computermaus.png	maj_Krawatte.png	ok
64143	08/25/2021 14:46:17	1	84	304640	1993241	1	797	1992148	1994941	1	798	1994268	2	945	organic	incorrect	1995907	1	798	1994268	1998656	1	800	1998507	2	1703	2000389	1	800	1998507	2002088	1	801	2000628	2	2111	organic	incorrect	2004221	1	802	2002748	2007120	1	804	2006987	3	1689	2008853	1	804	2006987	foe_08514.png	foe_Tannenzapfen.png	foe_Adler.png	ok
64143	08/25/2021 14:46:39	1	85	304640	2011185	1	805	2009108	2014667	1	807	2013347	3	1581	inorganic	incorrect	2016284	1	808	2015468	2018033	1	809	2017588	2	883	2018949	1	809	2017588	2023115	1	811	2021827	2	1346	inorganic	correct	2024481	1	812	2023948	2028296	1	814	2028188	4	338	2028663	1	814	2028188	mak_03979.png	mak_Socken.png	mak_Rucksack.png	ok
64143	08/25/2021 14:46:59	1	86	304640	2033228	1	816	2032428	2035910	1	817	2034548	3	423	organic	correct	2036360	1	817	2034548	2040759	1	819	2038787	4	1260	2042041	1	820	2040908	2044874	1	821	2043028	2	740	organic	correct	2045640	1	822	2045147	2049039	1	823	2047267	4	1506	2050572	1	824	2049388	mof_06901.png	mof_Hahn.png	mof_Spaghetti.png	ok
64143	08/25/2021 14:47:19	1	87	304640	2053704	1	826	2053627	2056187	1	827	2055748	3	1992	organic	correct	2058219	1	828	2057868	2061335	1	829	2059987	3	1049	2062418	1	830	2062107	2065717	1	831	2064228	3	1223	organic	correct	2066966	1	832	2066347	2070282	1	833	2068467	3	816	2071132	1	834	2070587	foa_00426.png	foa_Aubergine.png	foa_Marienkaefer.png	ok
64143	08/25/2021 14:47:39	1	88	304640	2073964	1	835	2072708	2076763	1	836	2074827	2	1072	inorganic	correct	2077863	1	837	2076947	2080262	1	838	2079067	2	1542	2081828	1	839	2081188	2085510	1	841	2085427	2	1476	inorganic	correct	2087010	1	841	2085427	2089925	1	843	2089667	2	1631	2091591	1	843	2089667	faj_07849.png	faj_Parfuem.png	faj_Schuh.png	ok
64143	08/25/2021 14:47:58	1	89	304640	2093857	1	844	2091787	2095607	1	845	2093907	2	2307	organic	incorrect	2097939	1	846	2096028	2099172	1	847	2098147	2	1787	2100988	1	848	2100267	2104187	1	849	2102387	3	2403	organic	correct	2106636	1	850	2104507	2109135	1	852	2108747	2	361	2109519	1	852	2108747	fop_07937.png	fop_Mango.png	fop_Koala.png	ok
64143	08/25/2021 14:48:18	1	90	304640	2112534	1	853	2110867	2115850	1	855	2115107	2	707	inorganic	correct	2116583	1	855	2115107	2119765	1	857	2119347	2	750	2120548	1	857	2119347	2124480	1	859	2123587	2	1094	inorganic	correct	2125597	1	859	2123587	2128346	1	861	2127827	3	828	2129212	1	861	2127827	mas_41937.png	mas_Tisch.png	mas_Bueroklammer.png	ok
64143	08/25/2021 14:48:36	1	91	304640	2132078	1	862	2129947	2134127	1	863	2132067	2	794	inorganic	correct	2134943	1	864	2134187	2138392	1	865	2136307	2	2081	2140508	1	866	2138427	2141824	1	867	2140547	3	1161	inorganic	correct	2143007	1	868	2142667	2146489	1	869	2144787	2	446	2146973	1	870	2146907	mai_23761.png	mai_Auto.png	mai_Gewehr.png	ok
64143	08/25/2021 14:48:57	1	92	304640	2150821	1	871	2149027	2154120	1	873	2153267	2	1374	inorganic	correct	2155536	1	874	2155387	2157602	1	875	2157507	2	1106	2158735	1	875	2157507	2161851	1	877	2161747	3	2086	inorganic	incorrect	2163967	1	878	2163867	2167182	1	879	2165986	2	488	2167699	1	879	2165986	fat_14140.png	fat_Kleiderbuegel.png	fat_Einkaufswagen.png	ok
64143	08/25/2021 14:49:19	1	93	304640	2171514	1	881	2170227	2174063	1	882	2172347	3	1774	inorganic	incorrect	2175863	1	883	2174466	2178312	1	884	2176587	2	885	2179228	1	885	2178707	2183260	1	887	2182946	3	2660	inorganic	correct	2185943	1	888	2185067	2188575	1	889	2187187	2	287	2188892	1	889	2187187	fag_06551.png	fag_Portemonnaie.png	fag_Geschenk.png	ok
64143	08/25/2021 14:49:39	1	94	304640	2193873	1	892	2193547	2196156	1	893	2195667	2	2136	inorganic	correct	2198322	1	894	2197786	2200571	1	895	2199906	4	1996	2202604	1	896	2202027	2203937	1	896	2202027	3	1006	inorganic	correct	2204986	1	897	2204146	2208902	1	899	2208387	4	810	2209735	1	899	2208387	mac_59752.png	mac_Medaille.png	mac_Dartpfeil.png	ok
64143	08/25/2021 14:49:58	1	95	304640	2213100	1	901	2212626	2215749	1	902	2214746	3	2076	inorganic	incorrect	2217849	1	903	2216867	2219681	1	904	2218987	2	1584	2221297	1	905	2221106	2224196	1	906	2223226	2	2155	inorganic	correct	2226379	1	907	2225347	2228612	1	908	2227466	2	267	2228912	1	908	2227466	faw_14685.png	faw_Kuechenmaschine.png	faw_Hufeisen.png	ok
64143	08/25/2021 14:50:16	1	96	304640	2232227	1	910	2231706	2234343	1	911	2233827	2	1038	inorganic	correct	2235409	1	911	2233827	2238392	1	913	2238066	4	573	2238991	1	913	2238066	2242124	1	914	2240186	3	715	inorganic	correct	2242873	1	915	2242306	2246939	1	917	2246546	4	945	2247905	1	917	2246546	far_06518.png	far_Heissluftballon.png	far_Giesskanne.png	ok
