ID	DateTime	Run	Delayed_Retrieval_Trial	First_Pulse_Time	FaceRecog_OnsetTime	FaceRecog_OnsetTimeUncertainty	FaceRecog_fMRI_Pulse	FaceRecog_fMRI_PulseTime	Assoc_Retrieval_OnsetTime	Assoc_Retrieval_OnsetTimeUncertainty	Assoc_Retrieval_fMRI_Pulse	Assoc_Retrieval_fMRI_PulseTime	Assoc_Retrieval_Pressed_Button	Assoc_Retrieval_RT	Assoc_Retrieval_Response_Category	Assoc_Retrieval_Accuracy	Assoc_Retrieval_Feedback_OnsetTime	Assoc_Retrieval_Feedback_OnsetTimeUncertainty	Assoc_Retrieval_Feedback_fMRI_Pulse	Assoc_Retrieval_Feedback_fMRI_PulseTime	Retrieval_consc_Rating_OnsetTime	Retrieval_consc_Rating_OnsetTimeUncertainty	Retrieval_consc_Rating_fMRI_Pulse	Retrieval_consc_Rating_fMRI_PulseTime	Retrieval_consc_Rating_Pressed_Button	Retrieval_consc_Rating_RT	Retrieval_consc_Rating_Feedback_OnsetTime	Retrieval_consc_Rating_Feedback_OnsetTimeUncertainty	Retrieval_consc_Rating_Feedback_fMRI_Pulse	Retrieval_consc_Rating_Feedback_fMRI_PulseTime	ForcedChoice_OnsetTime	ForcedChoice_OnsetTimeUncertainty	ForcedChoice_fMRI_Pulse	ForcedChoice_fMRI_PulseTime	ForcedChoice_Pressed_Button	ForcedChoice_RT	ForcedChoice_Response_Category	ForcedChoice_Accuracy	ForcedChoice_Feedback_OnsetTime	ForcedChoice_Feedback_OnsetTimeUncertainty	ForcedChoice_Feedback_fMRI_Pulse	ForcedChoice_Feedback_fMRI_PulseTime	Recognition_consc_Rating_OnsetTime	Recognition_consc_Rating_OnsetTimeUncertainty	Recognition_consc_Rating_fMRI_Pulse	Recognition_consc_Rating_fMRI_PulseTime	Recognition_consc_Rating_Pressed_Button	Recognition_consc_Rating_RT	Recognition_consc_Rating_Feedback_OnsetTime	Recognition_consc_Rating_Feedback_OnsetTimeUncertainty	Recognition_consc_Rating_Feedback_fMRI_Pulse	Recognition_consc_Rating_Feedback_fMRI_PulseTime	Presented_Person	Presented_Target	Presented_Lure	TrialStatus
64741	07/28/2021 14:12:57	1	1	84033	96983	1	7	96751	98666	1	7	96751	0	0	inorganic	miss	98666	1	9	100992	103881	1	10	103112	0	0	103881	1	11	105231	108796	1	12	107351	2	1340	inorganic	correct	110162	1	13	109473	113844	1	15	113712	4	325	114194	1	15	113712	fal_07906.png	fal_Buegeleisen.png	fal_Korb.png	ok
64741	07/28/2021 14:13:18	1	2	84033	117193	1	16	115831	119709	1	17	117953	2	711	organic	incorrect	120442	1	18	120071	124424	1	20	124312	2	380	124841	1	20	124312	129439	1	22	128551	3	2360	organic	correct	131822	1	23	130671	134371	1	24	132792	3	1007	135404	1	25	134912	mog_03090.png	mog_Fledermaus.png	mog_Pilz.png	ok
64741	07/28/2021 14:13:39	1	3	84033	138186	1	26	137032	140985	1	27	139152	2	340	organic	incorrect	141352	1	28	141273	146133	1	30	145511	3	1335	147500	1	30	145511	150265	1	32	149752	3	2157	organic	correct	152448	1	33	151871	154964	1	34	153991	4	992	155980	1	34	153991	mol_07679.png	mol_Pizza.png	mol_Schimpanse.png	ok
64741	07/28/2021 14:14:00	1	4	84033	159462	1	36	158231	161145	1	37	160352	3	1044	inorganic	incorrect	162211	1	37	160352	165427	1	39	164591	3	624	166077	1	39	164591	169892	1	41	168831	3	1474	inorganic	correct	171392	1	42	170951	175390	1	44	175191	3	485	175907	1	44	175191	far_00736.png	far_Heissluftballon.png	far_Giesskanne.png	ok
64741	07/28/2021 14:14:20	1	5	84033	180339	1	46	179432	182788	1	47	181552	2	532	organic	incorrect	183354	1	47	181552	186453	1	49	185791	2	762	187253	1	49	185791	191785	1	51	190031	3	1748	organic	correct	193584	1	52	192151	196250	1	53	194272	3	522	196800	1	54	196391	moh_06446.png	moh_Birne.png	moh_Muecke.png	ok
64741	07/28/2021 14:14:38	1	6	84033	199665	1	55	198511	201298	1	56	200631	2	669	organic	incorrect	201998	1	56	200631	205963	1	58	204871	2	455	206446	1	58	204871	209445	1	60	209111	2	1918	organic	correct	211395	1	61	211231	214427	1	62	213351	4	504	214960	1	62	213351	foa_00207.png	foa_Aubergine.png	foa_Marienkaefer.png	ok
64741	07/28/2021 14:15:00	1	7	84033	218409	1	64	217591	221575	1	65	219711	3	1817	organic	correct	223424	1	66	221831	225057	1	67	223951	3	1209	226290	1	68	226071	230105	1	69	228190	3	1478	organic	correct	231605	1	70	230312	234520	1	71	232431	4	777	235320	1	72	234551	foj_08220.png	foj_Waffel.png	foj_Rose.png	ok
64741	07/28/2021 14:15:19	1	8	84033	239702	1	74	238792	242401	1	75	240912	2	295	inorganic	correct	242734	1	75	240912	246933	1	77	245150	3	296	247266	1	77	245150	250481	1	79	249391	3	1544	inorganic	correct	252048	1	80	251510	254713	1	81	253631	3	311	255047	1	81	253631	map_41499.png	map_Globus.png	map_Pfeife.png	ok
64741	07/28/2021 14:15:42	1	9	84033	259229	1	83	257871	261694	1	84	259991	2	787	inorganic	correct	262511	1	85	262111	266809	1	87	266351	4	343	267176	1	87	266351	271658	1	89	270592	2	602	inorganic	correct	272291	1	89	270592	276873	1	91	274830	4	305	277206	1	92	276951	maj_01545.png	maj_Computermaus.png	maj_Krawatte.png	ok
64741	07/28/2021 14:16:00	1	10	84033	281688	1	94	281191	284003	1	95	283311	3	1016	inorganic	incorrect	285053	1	95	283311	288569	1	97	287551	2	440	289035	1	97	287551	292417	1	99	291790	2	1842	inorganic	correct	294283	1	100	293910	296233	1	101	296032	2	622	296882	1	101	296032	fan_17286.png	fan_Klavier.png	fan_Lampe.png	ok
64741	07/28/2021 14:16:21	1	11	84033	300281	1	102	298150	302547	1	104	302391	3	463	inorganic	incorrect	303047	1	104	302391	307479	1	106	306630	3	572	308079	1	106	306630	311428	1	108	310870	3	1648	inorganic	incorrect	313110	1	109	312991	316443	1	110	315111	3	426	316892	1	110	315111	fai_07494.png	fai_Kommode.png	fai_Foehn.png	ok
64741	07/28/2021 14:16:38	1	12	84033	320774	1	112	319351	322407	1	113	321471	3	1255	inorganic	incorrect	323690	1	114	323591	326722	1	115	325711	2	1287	328039	1	116	327830	330421	1	117	329950	3	1495	inorganic	incorrect	331937	1	117	329950	334470	1	119	334191	2	380	334886	1	119	334191	fat_12032.png	fat_Kleiderbuegel.png	fat_Einkaufswagen.png	ok
64741	07/28/2021 14:16:58	1	13	84033	338002	1	120	336310	340334	1	121	338431	2	1389	inorganic	correct	341767	1	122	340551	345333	1	124	344790	2	1455	346816	1	124	344790	348915	1	125	346910	3	1538	inorganic	correct	350481	1	126	349031	352830	1	127	351149	2	944	353797	1	128	353271	fax_14883.png	fax_Fahrrad.png	fax_Klebeband.png	ok
64741	07/28/2021 14:17:17	1	14	84033	358112	1	130	357510	360328	1	131	359630	2	381	organic	incorrect	360744	1	131	359630	363827	1	132	361750	2	1219	365076	1	133	363871	369075	1	135	368111	3	1869	organic	correct	370974	1	136	370231	373073	1	137	372351	3	789	373890	1	137	372351	fop_00621.png	fop_Koala.png	fop_Mango.png	ok
64741	07/28/2021 14:17:37	1	15	84033	376572	1	138	374469	379271	1	140	378711	2	1366	inorganic	correct	380671	1	140	378711	383120	1	142	382949	2	1115	384270	1	142	382949	387768	1	144	387190	2	2871	inorganic	correct	390684	1	145	389309	392067	1	146	391430	2	302	392417	1	146	391430	maw_04767.png	maw_Schlauchboot.png	maw_Pingpongschlaeger.png	ok
64741	07/28/2021 14:17:56	1	16	84033	396632	1	148	395671	398498	1	149	397789	2	253	organic	incorrect	398781	1	149	397789	403580	1	151	402031	2	795	404413	1	152	404150	408112	1	153	406269	3	930	organic	correct	409078	1	154	408390	412127	1	155	410510	3	421	412577	1	155	410510	mot_69374.png	mot_Hotdog.png	mot_Bison.png	ok
64741	07/28/2021 14:18:15	1	17	84033	415842	1	157	414749	418108	1	158	416870	3	937	inorganic	incorrect	419074	1	159	418990	423123	1	160	421109	2	845	424006	1	161	423230	427272	1	162	425350	3	1050	inorganic	correct	428355	1	163	427471	431837	1	165	431709	2	501	432370	1	165	431709	fag_06539.png	fag_Geschenk.png	fag_Portemonnaie.png	ok
64741	07/28/2021 14:18:37	1	18	84033	435436	1	166	433830	438518	1	168	438070	3	344	organic	correct	438901	1	168	438070	443466	1	170	442311	2	810	444299	1	170	442311	447365	1	172	446550	2	1543	organic	correct	448931	1	173	448669	452463	1	174	450790	3	454	452946	1	175	452909	fot_00797.png	fot_Taube.png	fot_Salat.png	ok
64741	07/28/2021 14:18:57	1	19	84033	457028	1	176	455030	460177	1	178	459270	2	269	inorganic	correct	460477	1	178	459270	464076	1	180	463509	2	684	464792	1	180	463509	468474	1	182	467750	3	1584	inorganic	correct	470091	1	183	469870	473539	1	184	471990	3	1679	475256	1	185	474110	mas_41366.png	mas_Tisch.png	mas_Bueroklammer.png	ok
64741	07/28/2021 14:19:18	1	20	84033	476938	1	186	476230	480187	1	187	478350	3	1951	inorganic	incorrect	482170	1	188	480470	484652	1	189	482589	2	1114	485802	1	190	484710	488951	1	191	486830	3	1197	inorganic	correct	490200	1	192	488950	493266	1	194	493189	4	719	494016	1	194	493189	faj_07783.png	faj_Parfuem.png	faj_Schuh.png	ok
64741	07/28/2021 14:19:40	1	21	84033	498181	1	196	497429	501397	1	197	499549	3	534	organic	correct	501963	1	198	501670	505495	1	199	503790	3	1841	507361	1	200	505910	510327	1	202	510150	2	1103	organic	incorrect	511460	1	202	510150	515692	1	204	514389	4	830	516558	1	205	516510	fok_09378.png	fok_Palme.png	fok_Kaenguruh.png	ok
64741	07/28/2021 14:19:57	1	22	84033	520374	1	206	518630	522006	1	207	520749	2	767	inorganic	correct	522806	1	207	520749	525439	1	209	524990	2	509	525972	1	209	524990	529604	1	211	529228	0	0	inorganic	miss	529604	1	212	531349	533353	1	212	531349	2	1586	534969	1	213	533470	mal_04470.png	mal_Drucker.png	mal_Kugelschreiber.png	ok
64741	07/28/2021 14:20:17	1	23	84033	537051	1	214	535590	539034	1	215	537708	3	230	organic	correct	539317	1	215	537708	542883	1	217	541950	3	422	543332	1	217	541950	547931	1	219	546189	3	1173	organic	correct	549131	1	220	548309	551780	1	221	550430	3	509	552313	1	221	550430	for_15187.png	for_Mandel.png	for_Seehund.png	ok
64741	07/28/2021 14:20:36	1	24	84033	556861	1	224	556790	558927	1	224	556790	3	1020	inorganic	incorrect	559977	1	225	558909	563376	1	227	563150	3	1545	564959	1	227	563150	568391	1	229	567389	2	1808	inorganic	correct	570223	1	230	569509	572839	1	231	571630	4	317	573189	1	231	571630	mak_00987.png	mak_Socken.png	mak_Rucksack.png	ok
64741	07/28/2021 14:20:57	1	25	84033	576355	1	233	575869	578487	1	234	577989	2	433	organic	incorrect	578954	1	234	577989	583169	1	236	582229	3	955	584152	1	236	582229	586984	1	238	586469	2	2843	organic	correct	589867	1	239	588590	591899	1	240	590709	2	243	592166	1	240	590709	foq_16799.png	foq_Pinguin.png	foq_Fenchel.png	ok
64741	07/28/2021 14:21:16	1	26	84033	596998	1	242	594949	599663	1	244	599189	2	1239	organic	incorrect	600930	1	244	599189	603296	1	245	601309	2	859	604179	1	246	603429	607111	1	247	605549	3	1503	organic	correct	608644	1	248	607669	612176	1	250	611909	4	274	612476	1	250	611909	mof_02408.png	mof_Spaghetti.png	mof_Hahn.png	ok
64741	07/28/2021 14:21:35	1	27	84033	615675	1	251	614029	617924	1	252	616149	3	1121	inorganic	incorrect	619074	1	253	618269	622389	1	254	620390	3	625	623039	1	255	622509	626321	1	256	624629	2	2310	inorganic	incorrect	628654	1	257	626749	631769	1	259	630989	2	262	632053	1	259	630989	mae_01010.png	mae_Schach.png	mae_Taschenrechner.png	ok
64741	07/28/2021 14:21:54	1	28	84033	635318	1	261	635229	637634	1	262	637349	2	687	organic	incorrect	638367	1	262	637349	642032	1	264	641589	4	1357	643415	1	264	641589	645465	1	265	643707	3	1636	organic	correct	647131	1	266	645829	650863	1	268	650069	4	375	651263	1	268	650069	mom_59361.png	mom_Loewe.png	mom_Ei.png	ok
64741	07/28/2021 14:22:13	1	29	84033	654212	1	269	652189	656011	1	270	654309	2	1778	organic	incorrect	657810	1	271	656429	661093	1	273	660669	2	869	661992	1	273	660669	664475	1	274	662789	2	1342	organic	incorrect	665841	1	275	664909	668307	1	276	667028	4	1387	669723	1	277	669149	fov_15046.png	fov_Fisch.png	fov_Zucchini.png	ok
64741	07/28/2021 14:22:35	1	30	84033	673355	1	278	671269	676171	1	280	675508	3	947	organic	correct	677154	1	280	675508	681053	1	282	679749	4	1241	682319	1	283	681869	686284	1	285	686109	3	939	organic	incorrect	687267	1	285	686109	690616	1	287	690348	3	1436	692082	1	287	690348	foe_08236.png	foe_Tannenzapfen.png	foe_Adler.png	ok
64741	07/28/2021 14:22:55	1	31	84033	695331	1	289	694589	697847	1	290	696709	2	441	inorganic	correct	698313	1	290	696709	701446	1	292	700948	3	342	701812	1	292	700948	705944	1	294	705189	3	1237	inorganic	correct	707210	1	294	705189	710559	1	296	709429	4	232	710826	1	296	709429	mau_49693.png	mau_Wasserventil.png	mau_Leiter.png	ok
64741	07/28/2021 14:23:13	1	32	84033	715524	1	298	713668	717190	1	299	715788	2	946	organic	incorrect	718173	1	300	717909	721056	1	301	720029	3	1574	722655	1	302	722148	725104	1	303	724268	3	1530	organic	incorrect	726671	1	304	726388	728903	1	305	728509	4	1129	730069	1	305	728509	moj_11821.png	moj_Blatt.png	moj_Walnuss.png	ok
64741	07/28/2021 14:23:36	1	33	84033	733368	1	307	732748	735301	1	308	734869	2	545	inorganic	correct	735884	1	308	734869	740283	1	310	739108	2	201	740516	1	310	739108	745214	1	312	743349	3	1533	inorganic	correct	746780	1	313	745468	750413	1	315	749708	2	398	750846	1	315	749708	mac_59169.png	mac_Dartpfeil.png	mac_Medaille.png	ok
64741	07/28/2021 14:23:58	1	34	84033	755744	1	317	753948	759093	1	319	758189	3	420	inorganic	incorrect	759543	1	319	758189	764008	1	321	762428	3	1095	765141	1	322	764548	768623	1	323	766668	3	2058	inorganic	incorrect	770706	1	324	768788	772588	1	325	770908	2	593	773205	1	326	773028	mat_23275.png	mat_Helm.png	mat_Feuerzeug.png	ok
64741	07/28/2021 14:24:18	1	35	84033	777803	1	328	777268	779636	1	329	779388	2	430	organic	incorrect	780102	1	329	779388	784734	1	331	783628	2	1286	786067	1	332	785748	788416	1	333	787868	3	1221	organic	correct	789666	1	333	787868	792348	1	335	792108	2	768	793148	1	335	792108	moe_02012.png	moe_Waschbaer.png	moe_Pommes.png	ok
64741	07/28/2021 14:24:38	1	36	84033	797613	1	337	796348	799329	1	338	798468	3	808	inorganic	incorrect	800162	1	338	798468	804244	1	340	802708	2	1573	805844	1	341	804828	808743	1	342	806948	2	1154	inorganic	correct	809926	1	343	809068	814241	1	345	813307	4	255	814524	1	345	813307	faw_14215.png	faw_Hufeisen.png	faw_Kuechenmaschine.png	ok
64741	07/28/2021 14:24:57	1	37	84033	818173	1	347	817548	820306	1	348	819668	3	425	inorganic	incorrect	820755	1	348	819668	824271	1	350	823908	3	1391	825687	1	350	823908	827670	1	351	826028	3	1675	inorganic	incorrect	829369	1	352	828148	832435	1	353	830267	3	278	832751	1	354	832388	fab_06018.png	fab_Kinderwagen.png	fab_Staubsauger.png	ok
64741	07/28/2021 14:25:19	1	38	84033	836683	1	356	836627	840199	1	357	838747	2	506	inorganic	correct	840732	1	357	838747	845147	1	360	845107	3	1873	847047	1	360	845107	850112	1	362	849348	2	1363	inorganic	correct	851495	1	363	851468	855327	1	364	853587	4	719	856077	1	365	855708	mao_11634.png	mao_Kegel.png	mao_Stempel.png	ok
64741	07/28/2021 14:25:41	1	39	84033	858893	1	366	857828	861792	1	367	859947	3	295	organic	correct	862108	1	368	862067	866773	1	370	866308	3	251	867056	1	370	866308	871155	1	372	870547	3	1055	organic	incorrect	872238	1	372	870547	876070	1	374	874788	4	552	876653	1	374	874788	foi_03389.png	foi_Pflanze.png	foi_Apfelkuchen.png	ok
64741	07/28/2021 14:26:01	1	40	84033	880952	1	376	879027	884284	1	378	883267	3	1893	inorganic	incorrect	886217	1	379	885387	888166	1	380	887507	3	408	888599	1	380	887507	891798	1	382	891747	3	1088	inorganic	correct	892914	1	382	891747	896646	1	384	895988	2	269	896946	1	384	895988	fac_02146.png	fac_Haarbuerste.png	fac_Ohrring.png	ok
64741	07/28/2021 14:26:21	1	41	84033	900645	1	386	900227	903128	1	387	902347	2	1102	organic	incorrect	904261	1	387	902347	908109	1	389	906587	2	907	909042	1	390	908707	912491	1	391	910827	2	2159	organic	incorrect	914674	1	392	912948	917523	1	394	917187	2	268	917823	1	394	917187	mon_65798.png	mon_Kartoffel.png	mon_Fuchs.png	ok
64741	07/28/2021 14:26:41	1	42	84033	920872	1	395	919307	923037	1	396	921427	2	401	organic	incorrect	923471	1	396	921427	928369	1	399	927787	2	870	929269	1	399	927787	931951	1	400	929907	3	1560	organic	correct	933551	1	401	932027	936350	1	403	936267	2	838	937216	1	403	936267	mou_01862.png	mou_Kraehe.png	mou_Croissant.png	ok
64741	07/28/2021 14:27:02	1	43	84033	941531	1	405	940507	944080	1	406	942627	3	700	organic	correct	944813	1	407	944747	947896	1	408	946867	2	1153	949079	1	409	948987	951878	1	410	951107	3	2394	organic	incorrect	954294	1	411	953227	957326	1	412	955347	2	698	958059	1	413	957467	mob_00760.png	mob_Igel.png	mob_Kiwi.png	ok
64741	07/28/2021 14:27:24	1	44	84033	962424	1	415	961707	965706	1	416	963827	2	285	inorganic	correct	966023	1	417	965947	970638	1	419	970187	2	784	971454	1	419	970187	975120	1	421	974427	3	1421	inorganic	incorrect	976569	1	421	974427	979852	1	423	978667	3	432	980318	1	423	978667	fap_16329.png	fap_Knopf.png	fap_Kissen.png	ok
64741	07/28/2021 14:27:43	1	45	84033	984317	1	425	982906	986499	1	426	985026	3	1125	organic	correct	987649	1	427	987147	989965	1	428	989267	3	1422	991414	1	429	991386	995196	1	430	993507	3	1595	organic	incorrect	996813	1	431	995627	999195	1	432	997747	2	1424	1000645	1	433	999866	foc_02157.png	foc_Eule.png	foc_Brombeere.png	ok
64741	07/28/2021 14:28:01	1	46	84033	1002661	1	434	1001987	1004727	1	435	1004107	2	1189	organic	incorrect	1005943	1	435	1004107	1008642	1	437	1008346	2	1392	1010058	1	437	1008346	1012291	1	438	1010467	2	1245	organic	correct	1013557	1	439	1012587	1016789	1	440	1014706	3	357	1017172	1	441	1016826	fou_17118.png	fou_Feige.png	fou_Schmetterling.png	ok
64741	07/28/2021 14:28:20	1	47	84033	1021404	1	443	1021066	1023020	1	443	1021066	3	1023	inorganic	incorrect	1024070	1	444	1023186	1027436	1	445	1025306	2	1089	1028552	1	446	1027427	1031184	1	447	1029546	2	1586	inorganic	correct	1032817	1	448	1031666	1036299	1	450	1035907	2	265	1036599	1	450	1035907	mai_06530.png	mai_Gewehr.png	mai_Auto.png	ok
64741	07/28/2021 14:28:38	1	48	84033	1040365	1	452	1040146	1042047	1	452	1040146	2	275	organic	incorrect	1042347	1	453	1042267	1045396	1	454	1044386	2	760	1046179	1	454	1044386	1049745	1	456	1048626	3	1062	organic	incorrect	1050828	1	457	1050747	1053693	1	458	1052866	3	768	1054493	1	458	1052866	mos_20953.png	mos_Traube.png	mos_Eintagsfliege.png	ok
64741	07/28/2021 14:29:00	1	49	84033	1057559	1	460	1057106	1059908	1	461	1059227	3	1425	inorganic	incorrect	1061357	1	461	1059227	1065073	1	463	1063466	2	783	1065889	1	464	1065586	1070054	1	466	1069826	3	1834	inorganic	incorrect	1071921	1	466	1069826	1075319	1	468	1074066	2	969	1076319	1	469	1076186	fal_07977.png	fal_Korb.png	fal_Buegeleisen.png	ok
64741	07/28/2021 14:29:19	1	50	84033	1080334	1	470	1078306	1082084	1	471	1080426	2	1519	organic	incorrect	1083633	1	472	1082547	1086449	1	473	1084666	2	1063	1087549	1	474	1086786	1091097	1	476	1091026	2	946	organic	correct	1092064	1	476	1091026	1094746	1	477	1093146	3	797	1095579	1	478	1095266	mol_11363.png	mol_Schimpanse.png	mol_Pizza.png	ok
64741	07/28/2021 14:29:39	1	51	84033	1098745	1	479	1097386	1100927	1	480	1099506	3	1203	inorganic	incorrect	1102160	1	481	1101626	1104776	1	482	1103746	0	0	1104776	1	483	1105865	1108991	1	484	1107986	3	2876	inorganic	correct	1111890	1	485	1110106	1114190	1	486	1112226	2	360	1114573	1	487	1114345	far_06518.png	far_Giesskanne.png	far_Heissluftballon.png	ok
64741	07/28/2021 14:29:58	1	52	84033	1118755	1	489	1118586	1120654	1	489	1118586	3	672	organic	correct	1121354	1	490	1120706	1125636	1	492	1124946	2	2137	1127802	1	493	1127066	1129085	1	493	1127066	2	1562	organic	correct	1130684	1	494	1129185	1134399	1	496	1133426	2	307	1134733	1	496	1133426	mog_03277.png	mog_Pilz.png	mog_Fledermaus.png	ok
64741	07/28/2021 14:30:19	1	53	84033	1137798	1	498	1137665	1140964	1	499	1139786	3	497	organic	correct	1141497	1	499	1139786	1144863	1	501	1144026	2	2175	1147062	1	502	1146145	1150127	1	503	1148266	3	1865	organic	correct	1152027	1	504	1150386	1154326	1	505	1152505	3	1162	1155526	1	506	1154625	moh_07125.png	moh_Muecke.png	moh_Birne.png	ok
64741	07/28/2021 14:30:37	1	54	84033	1159058	1	508	1158866	1160824	1	508	1158866	3	388	inorganic	incorrect	1161240	1	509	1160985	1165206	1	510	1163105	2	959	1166189	1	511	1165226	1168555	1	512	1167346	0	0	inorganic	miss	1168555	1	513	1169465	1172537	1	514	1171585	0	0	1172537	1	514	1171585	map_49576.png	map_Pfeife.png	map_Globus.png	ok
64741	07/28/2021 14:30:54	1	55	84033	1176935	1	515	1175825	1179201	1	516	1177945	3	906	organic	correct	1180151	1	517	1180066	1182600	1	518	1182186	2	995	1183633	1	518	1182186	1186582	1	520	1186425	3	1164	organic	correct	1187781	1	520	1186425	1190330	1	521	1188546	2	346	1190714	1	522	1190666	foa_00426.png	foa_Marienkaefer.png	foa_Aubergine.png	ok
64741	07/28/2021 14:31:13	1	56	84033	1194362	1	523	1192785	1195995	1	524	1194905	3	267	organic	correct	1196295	1	524	1194905	1199527	1	526	1199145	2	1671	1201227	1	526	1199145	1204609	1	528	1203385	3	919	organic	correct	1205559	1	529	1205506	1208841	1	530	1207625	3	306	1209174	1	530	1207625	foj_08937.png	foj_Rose.png	foj_Waffel.png	ok
64741	07/28/2021 14:31:32	1	57	84033	1213023	1	532	1211865	1215439	1	533	1213985	2	809	inorganic	correct	1216272	1	534	1216105	1219404	1	535	1218225	2	2575	1222003	1	536	1220346	1224236	1	537	1222465	3	1188	inorganic	incorrect	1225452	1	538	1224585	1228418	1	539	1226705	2	915	1229384	1	540	1228825	fai_07637.png	fai_Foehn.png	fai_Kommode.png	ok
64741	07/28/2021 14:31:53	1	58	84033	1232066	1	541	1230945	1233749	1	542	1233065	2	280	inorganic	correct	1234066	1	542	1233065	1237881	1	544	1237305	2	831	1238747	1	544	1237305	1242946	1	546	1241545	3	1919	inorganic	correct	1244895	1	547	1243665	1248194	1	549	1247905	2	155	1248378	1	549	1247905	fan_18894.png	fan_Lampe.png	fan_Klavier.png	ok
64741	07/28/2021 14:32:12	1	59	84033	1252909	1	551	1252144	1256342	1	552	1254265	3	265	inorganic	incorrect	1256641	1	553	1256385	1259874	1	554	1258505	2	978	1260890	1	555	1260625	1264889	1	556	1262745	2	1739	inorganic	incorrect	1266655	1	557	1264865	1268587	1	558	1266985	2	926	1269537	1	559	1269105	fat_14140.png	fat_Einkaufswagen.png	fat_Kleiderbuegel.png	ok
64741	07/28/2021 14:32:34	1	60	84033	1272003	1	560	1271225	1274485	1	561	1273345	3	298	inorganic	incorrect	1274819	1	561	1273345	1278417	1	563	1277585	2	971	1279434	1	563	1277585	1283482	1	565	1281825	2	1008	inorganic	correct	1284515	1	566	1283944	1288481	1	568	1288185	4	2416	1290930	1	569	1290305	maj_01546.png	maj_Krawatte.png	maj_Computermaus.png	ok
64741	07/28/2021 14:32:54	1	61	84033	1293779	1	570	1292424	1297244	1	572	1296665	3	289	inorganic	incorrect	1297561	1	572	1296665	1302176	1	574	1300904	3	1227	1303426	1	575	1303025	1305758	1	576	1305145	0	0	inorganic	miss	1305758	1	577	1307264	1310157	1	578	1309385	2	944	1311123	1	578	1309385	fax_15310.png	fax_Klebeband.png	fax_Fahrrad.png	ok
64741	07/28/2021 14:33:14	1	62	84033	1313705	1	580	1313624	1316305	1	581	1315744	3	522	inorganic	incorrect	1316854	1	581	1315744	1321120	1	583	1319985	3	700	1321853	1	583	1319985	1324618	1	585	1324224	2	1564	inorganic	correct	1326235	1	585	1324224	1329617	1	587	1328465	2	1046	1330700	1	588	1330584	maw_22459.png	maw_Pingpongschlaeger.png	maw_Schlauchboot.png	ok
64741	07/28/2021 14:33:35	1	63	84033	1333982	1	589	1332704	1336814	1	590	1334825	2	484	organic	incorrect	1337331	1	591	1336944	1341913	1	593	1341184	2	358	1342296	1	593	1341184	1345661	1	595	1345424	3	2508	organic	correct	1348194	1	596	1347544	1350576	1	597	1349664	3	476	1351076	1	597	1349664	mot_69770.png	mot_Bison.png	mot_Hotdog.png	ok
64741	07/28/2021 14:33:52	1	64	84033	1354692	1	599	1353904	1356758	1	600	1356024	3	893	organic	correct	1357674	1	600	1356024	1361073	1	602	1360264	2	2454	1363555	1	603	1362384	1364555	1	604	1364504	3	2062	organic	correct	1366638	1	604	1364504	1368737	1	605	1366625	2	945	1369720	1	606	1368744	fop_07937.png	fop_Mango.png	fop_Koala.png	ok
64741	07/28/2021 14:34:13	1	65	84033	1372319	1	607	1370864	1375751	1	609	1375104	2	410	organic	incorrect	1376201	1	609	1375104	1379966	1	611	1379344	2	1682	1381682	1	612	1381464	1383332	1	612	1381464	3	1690	organic	incorrect	1385048	1	613	1383584	1388214	1	615	1387824	4	833	1389080	1	615	1387824	fot_06092.png	fot_Salat.png	fot_Taube.png	ok
64741	07/28/2021 14:34:34	1	66	84033	1392812	1	617	1392064	1395678	1	618	1394184	2	1040	inorganic	correct	1396744	1	619	1396304	1400643	1	621	1400544	2	399	1401076	1	621	1400544	1404358	1	622	1402664	3	1155	inorganic	correct	1405541	1	623	1404784	1409573	1	625	1409024	4	426	1410023	1	625	1409024	mas_41937.png	mas_Bueroklammer.png	mas_Tisch.png	ok
64741	07/28/2021 14:34:54	1	67	84033	1413655	1	627	1413264	1416621	1	628	1415384	3	1453	inorganic	incorrect	1418103	1	629	1417504	1420103	1	630	1419624	2	1344	1421469	1	630	1419624	1424585	1	632	1423864	3	2671	inorganic	correct	1427300	1	633	1425984	1429433	1	634	1428104	2	297	1429766	1	634	1428104	faj_07849.png	faj_Schuh.png	faj_Parfuem.png	ok
64741	07/28/2021 14:35:16	1	68	84033	1433615	1	636	1432344	1436047	1	637	1434464	2	612	inorganic	correct	1436681	1	638	1436583	1441246	1	640	1440824	0	0	1441246	1	641	1442944	1446161	1	642	1445063	3	1572	inorganic	correct	1447760	1	643	1447183	1451309	1	644	1449304	2	1162	1452509	1	645	1451424	fag_06551.png	fag_Portemonnaie.png	fag_Geschenk.png	ok
64741	07/28/2021 14:35:37	1	69	84033	1456224	1	647	1455664	1459290	1	648	1457784	3	235	organic	correct	1459556	1	648	1457784	1463971	1	650	1462023	2	1403	1465404	1	651	1464144	1469053	1	653	1468383	3	1144	organic	correct	1470219	1	653	1468383	1473418	1	655	1472624	2	890	1474351	1	655	1472624	for_15880.png	for_Seehund.png	for_Mandel.png	ok
64741	07/28/2021 14:35:59	1	70	84033	1477134	1	657	1476863	1479733	1	658	1478983	3	328	organic	correct	1480083	1	658	1478983	1484864	1	660	1483223	2	571	1485464	1	661	1485343	1488913	1	662	1487463	3	1485	organic	incorrect	1490429	1	663	1489584	1494394	1	665	1493823	0	0	1494394	1	666	1495944	fok_09860.png	fok_Kaenguruh.png	fok_Palme.png	ok
64741	07/28/2021 14:36:19	1	71	84033	1499359	1	667	1498063	1502025	1	668	1500183	3	54	inorganic	incorrect	1502108	1	668	1500183	1507290	1	671	1506543	0	0	1507290	1	672	1508663	1511005	1	673	1510783	2	932	inorganic	correct	1511972	1	673	1510783	1514604	1	674	1512904	3	369	1515004	1	674	1512904	mak_03979.png	mak_Rucksack.png	mak_Socken.png	ok
64741	07/28/2021 14:36:39	1	72	84033	1519236	1	676	1517143	1520835	1	677	1519263	0	0	inorganic	miss	1520835	1	679	1523503	1525284	1	679	1523503	0	0	1525284	1	681	1527743	1529866	1	681	1527743	3	1109	inorganic	incorrect	1530999	1	682	1529863	1534597	1	684	1534103	2	222	1534847	1	684	1534103	mal_20552.png	mal_Kugelschreiber.png	mal_Drucker.png	ok
64741	07/28/2021 14:36:58	1	73	84033	1538946	1	686	1538343	1540745	1	687	1540463	3	270	organic	correct	1541045	1	687	1540463	1544144	1	688	1542583	2	759	1544927	1	689	1544703	1549126	1	691	1548943	3	1695	organic	correct	1550842	1	691	1548943	1552941	1	692	1551063	3	675	1553641	1	693	1553183	foq_17341.png	foq_Fenchel.png	foq_Pinguin.png	ok
64741	07/28/2021 14:37:15	1	74	84033	1557806	1	695	1557423	1559456	1	695	1557423	0	0	inorganic	miss	1559456	1	697	1561663	1563055	1	697	1561663	2	976	1564054	1	698	1563783	1566853	1	699	1565903	3	1742	inorganic	incorrect	1568619	1	700	1568022	1571602	1	701	1570143	2	350	1571985	1	701	1570143	mae_36426.png	mae_Taschenrechner.png	mae_Schach.png	ok
64741	07/28/2021 14:37:34	1	75	84033	1575234	1	703	1574383	1577899	1	704	1576503	2	364	organic	incorrect	1578299	1	704	1576503	1581598	1	706	1580743	2	2376	1583997	1	707	1582862	1586480	1	708	1584983	2	2708	organic	correct	1589212	1	709	1587103	1590179	1	710	1589223	2	523	1590728	1	710	1589223	mof_06901.png	mof_Hahn.png	mof_Spaghetti.png	ok
64741	07/28/2021 14:37:53	1	76	84033	1593561	1	712	1593463	1595560	1	712	1593463	3	1043	organic	correct	1596626	1	713	1595583	1599209	1	714	1597703	2	818	1600059	1	715	1599822	1603191	1	716	1601943	3	1103	organic	correct	1604324	1	717	1604063	1607756	1	718	1606182	4	525	1608306	1	718	1606182	mom_59641.png	mom_Ei.png	mom_Loewe.png	ok
64741	07/28/2021 14:38:14	1	77	84033	1612721	1	721	1612543	1614820	1	722	1614662	3	564	organic	correct	1615420	1	722	1614662	1620035	1	724	1618903	2	263	1620335	1	724	1618903	1625150	1	726	1623142	2	945	organic	incorrect	1626133	1	727	1625263	1629599	1	729	1629502	2	1559	1631181	1	729	1629502	foe_08514.png	foe_Adler.png	foe_Tannenzapfen.png	ok
64741	07/28/2021 14:38:37	1	78	84033	1633881	1	731	1633743	1636730	1	732	1635863	3	637	organic	correct	1637396	1	732	1635863	1641661	1	734	1640102	2	662	1642361	1	735	1642223	1646776	1	737	1646462	2	1387	organic	incorrect	1648192	1	737	1646462	1651791	1	739	1650703	2	211	1652024	1	739	1650703	fov_15193.png	fov_Zucchini.png	fov_Fisch.png	ok
64741	07/28/2021 14:38:54	1	79	84033	1656540	1	741	1654942	1658722	1	742	1657062	3	481	inorganic	incorrect	1659239	1	743	1659183	1662188	1	744	1661302	2	903	1663121	1	744	1661302	1665720	1	746	1665542	0	0	inorganic	miss	1665720	1	747	1667662	1669569	1	747	1667662	3	298	1669902	1	748	1669782	mau_58144.png	mau_Leiter.png	mau_Wasserventil.png	ok
64741	07/28/2021 14:39:14	1	80	84033	1673967	1	749	1671902	1677049	1	751	1676142	3	1222	organic	correct	1678299	1	752	1678262	1680815	1	753	1680382	2	847	1681698	1	753	1680382	1684247	1	754	1682503	0	0	organic	miss	1684247	1	756	1686742	1689562	1	757	1688862	2	1074	1690661	1	757	1688862	moj_11860.png	moj_Walnuss.png	moj_Blatt.png	ok
64741	07/28/2021 14:39:34	1	81	84033	1694510	1	759	1693102	1697093	1	760	1695222	2	298	inorganic	correct	1697426	1	761	1697342	1701808	1	763	1701582	2	273	1702108	1	763	1701582	1705623	1	764	1703702	2	2200	inorganic	incorrect	1707856	1	765	1705821	1709772	1	766	1707942	2	328	1710138	1	767	1710062	mac_59752.png	mac_Medaille.png	mac_Dartpfeil.png	ok
64741	07/28/2021 14:39:54	1	82	84033	1713704	1	768	1712182	1717152	1	770	1716422	3	278	inorganic	incorrect	1717452	1	770	1716422	1721534	1	772	1720661	0	0	1721534	1	773	1722782	1725683	1	774	1724902	2	951	inorganic	correct	1726666	1	774	1724902	1729598	1	776	1729141	2	621	1730248	1	776	1729141	faw_14685.png	faw_Kuechenmaschine.png	faw_Hufeisen.png	ok
64741	07/28/2021 14:40:13	1	83	84033	1733913	1	778	1733382	1736213	1	779	1735502	3	1382	inorganic	incorrect	1737629	1	779	1735502	1740495	1	781	1739742	2	581	1741111	1	781	1739742	1744527	1	783	1743981	3	1617	inorganic	incorrect	1746176	1	784	1746101	1749991	1	785	1748222	2	393	1750408	1	786	1750342	mat_23754.png	mat_Feuerzeug.png	mat_Helm.png	ok
64741	07/28/2021 14:40:32	1	84	84033	1753523	1	787	1752461	1755306	1	788	1754581	3	322	organic	correct	1755656	1	788	1754581	1759988	1	790	1758822	3	1772	1761787	1	791	1760941	1764103	1	792	1763062	3	2077	organic	incorrect	1766203	1	793	1765182	1768335	1	794	1767301	2	899	1769268	1	794	1767301	moe_23630.png	moe_Pommes.png	moe_Waschbaer.png	ok
64741	07/28/2021 14:40:53	1	85	84033	1772517	1	796	1771542	1775799	1	797	1773662	3	864	organic	correct	1776699	1	798	1775781	1779298	1	799	1777901	2	648	1779981	1	799	1777901	1784446	1	802	1784261	2	658	organic	incorrect	1785129	1	802	1784261	1789561	1	804	1788502	2	865	1790461	1	804	1788502	foi_05187.png	foi_Apfelkuchen.png	foi_Pflanze.png	ok
64741	07/28/2021 14:41:14	1	86	84033	1792993	1	806	1792741	1795793	1	807	1794861	2	527	inorganic	correct	1796342	1	807	1794861	1800091	1	809	1799101	2	1729	1801857	1	810	1801221	1805356	1	811	1803342	2	1763	inorganic	correct	1807155	1	812	1805461	1809904	1	814	1809701	2	406	1810338	1	814	1809701	mao_19000.png	mao_Stempel.png	mao_Kegel.png	ok
64741	07/28/2021 14:41:34	1	87	84033	1814136	1	816	1813941	1816902	1	817	1816061	3	273	inorganic	incorrect	1817202	1	817	1816061	1821567	1	819	1820302	2	387	1822000	1	819	1820302	1826515	1	821	1824541	2	1552	inorganic	incorrect	1828098	1	822	1826661	1830664	1	823	1828781	3	2021	1832713	1	824	1830901	fab_06286.png	fab_Staubsauger.png	fab_Kinderwagen.png	ok
64741	07/28/2021 14:41:54	1	88	84033	1834280	1	825	1833021	1835979	1	826	1835141	0	0	inorganic	miss	1835979	1	827	1837261	1840577	1	828	1839381	0	0	1840577	1	829	1841501	1845876	1	831	1845741	3	2294	inorganic	correct	1848191	1	832	1847861	1849824	1	832	1847861	2	798	1850657	1	833	1849981	fac_02970.png	fac_Ohrring.png	fac_Haarbuerste.png	ok
64741	07/28/2021 14:42:16	1	89	84033	1853740	1	834	1852101	1857255	1	836	1856341	2	391	inorganic	correct	1857672	1	836	1856341	1861720	1	838	1860581	2	531	1862287	1	838	1860581	1866102	1	840	1864821	3	1016	inorganic	incorrect	1867152	1	841	1866940	1871084	1	842	1869061	2	244	1871367	1	843	1871181	fap_17119.png	fap_Kissen.png	fap_Knopf.png	ok
64741	07/28/2021 14:42:35	1	90	84033	1875582	1	845	1875420	1878864	1	846	1877541	3	1172	organic	correct	1880064	1	847	1879661	1882796	1	848	1881781	2	322	1883146	1	848	1881781	1886995	1	850	1886021	3	1109	organic	incorrect	1888128	1	850	1886021	1892043	1	852	1890260	2	257	1892327	1	852	1890260	mob_22833.png	mob_Kiwi.png	mob_Igel.png	ok
64741	07/28/2021 14:42:59	1	91	84033	1895409	1	854	1894501	1898391	1	855	1896621	0	0	organic	miss	1898391	1	857	1900861	1903656	1	858	1902981	2	386	1904073	1	858	1902981	1908971	1	860	1907220	3	1955	organic	correct	1910954	1	861	1909341	1913453	1	862	1911461	2	735	1914219	1	863	1913580	mou_06524.png	mou_Croissant.png	mou_Kraehe.png	ok
64741	07/28/2021 14:43:19	1	92	84033	1918584	1	865	1917821	1921367	1	866	1919941	3	370	organic	correct	1921783	1	866	1919941	1925832	1	868	1924180	2	567	1926432	1	869	1926301	1931147	1	871	1930540	3	1394	organic	incorrect	1932563	1	871	1930540	1935612	1	873	1934781	3	768	1936412	1	873	1934781	mon_69587.png	mon_Fuchs.png	mon_Kartoffel.png	ok
64741	07/28/2021 14:43:41	1	93	84033	1939361	1	875	1939020	1942343	1	876	1941141	3	347	organic	correct	1942726	1	876	1941141	1947425	1	878	1945380	2	248	1947708	1	879	1947500	1952073	1	881	1951740	3	1373	organic	correct	1953473	1	881	1951740	1957038	1	883	1955980	2	307	1957371	1	883	1955980	fou_18966.png	fou_Schmetterling.png	fou_Feige.png	ok
64741	07/28/2021 14:44:00	1	94	84033	1961253	1	885	1960220	1963303	1	886	1962340	0	0	organic	miss	1963303	1	887	1964460	1966618	1	888	1966581	2	810	1967468	1	888	1966581	1970400	1	889	1968700	3	1504	organic	incorrect	1971933	1	890	1970820	1974732	1	891	1972940	3	1576	1976331	1	892	1975060	mos_23223.png	mos_Eintagsfliege.png	mos_Traube.png	ok
64741	07/28/2021 14:44:19	1	95	84033	1979680	1	894	1979300	1981430	1	894	1979300	3	1876	inorganic	incorrect	1983329	1	895	1981421	1985962	1	897	1985660	3	562	1986545	1	897	1985660	1991077	1	899	1989900	3	1078	inorganic	incorrect	1992176	1	900	1992020	1995942	1	901	1994140	2	1054	1997024	1	902	1996260	mai_23761.png	mai_Auto.png	mai_Gewehr.png	ok
64741	07/28/2021 14:44:40	1	96	84033	1999357	1	903	1998380	2001906	1	904	2000500	2	254	organic	incorrect	2002189	1	904	2000500	2007104	1	907	2006860	2	500	2007638	1	907	2006860	2011336	1	909	2011100	0	0	organic	miss	2011336	1	910	2013220	2016635	1	911	2015340	2	617	2017301	1	911	2015340	foc_02664.png	foc_Brombeere.png	foc_Eule.png	ok
