ID	DateTime	Run	Delayed_Retrieval_Trial	First_Pulse_Time	FaceRecog_OnsetTime	FaceRecog_OnsetTimeUncertainty	FaceRecog_fMRI_Pulse	FaceRecog_fMRI_PulseTime	Assoc_Retrieval_OnsetTime	Assoc_Retrieval_OnsetTimeUncertainty	Assoc_Retrieval_fMRI_Pulse	Assoc_Retrieval_fMRI_PulseTime	Assoc_Retrieval_Pressed_Button	Assoc_Retrieval_RT	Assoc_Retrieval_Response_Category	Assoc_Retrieval_Accuracy	Assoc_Retrieval_Feedback_OnsetTime	Assoc_Retrieval_Feedback_OnsetTimeUncertainty	Assoc_Retrieval_Feedback_fMRI_Pulse	Assoc_Retrieval_Feedback_fMRI_PulseTime	Retrieval_consc_Rating_OnsetTime	Retrieval_consc_Rating_OnsetTimeUncertainty	Retrieval_consc_Rating_fMRI_Pulse	Retrieval_consc_Rating_fMRI_PulseTime	Retrieval_consc_Rating_Pressed_Button	Retrieval_consc_Rating_RT	Retrieval_consc_Rating_Feedback_OnsetTime	Retrieval_consc_Rating_Feedback_OnsetTimeUncertainty	Retrieval_consc_Rating_Feedback_fMRI_Pulse	Retrieval_consc_Rating_Feedback_fMRI_PulseTime	ForcedChoice_OnsetTime	ForcedChoice_OnsetTimeUncertainty	ForcedChoice_fMRI_Pulse	ForcedChoice_fMRI_PulseTime	ForcedChoice_Pressed_Button	ForcedChoice_RT	ForcedChoice_Response_Category	ForcedChoice_Accuracy	ForcedChoice_Feedback_OnsetTime	ForcedChoice_Feedback_OnsetTimeUncertainty	ForcedChoice_Feedback_fMRI_Pulse	ForcedChoice_Feedback_fMRI_PulseTime	Recognition_consc_Rating_OnsetTime	Recognition_consc_Rating_OnsetTimeUncertainty	Recognition_consc_Rating_fMRI_Pulse	Recognition_consc_Rating_fMRI_PulseTime	Recognition_consc_Rating_Pressed_Button	Recognition_consc_Rating_RT	Recognition_consc_Rating_Feedback_OnsetTime	Recognition_consc_Rating_Feedback_OnsetTimeUncertainty	Recognition_consc_Rating_Feedback_fMRI_Pulse	Recognition_consc_Rating_Feedback_fMRI_PulseTime	Presented_Person	Presented_Target	Presented_Lure	TrialStatus
64763	08/11/2021 15:23:24	1	1	240363	251364	1	6	250962	254613	1	7	253083	3	1883	inorganic	incorrect	256529	1	8	255203	259645	1	10	259442	3	1011	260678	1	10	259442	263477	1	11	261563	2	1201	inorganic	correct	264710	1	12	263683	267126	1	13	265802	4	713	267875	1	13	265802	faj_07783.png	faj_Parfuem.png	faj_Schuh.png	ok
64763	08/11/2021 15:23:44	1	2	240363	271974	1	15	270043	273873	1	16	272163	3	610	organic	correct	274507	1	17	274282	277239	1	18	276402	4	560	277822	1	18	276402	281171	1	20	280643	3	1126	organic	correct	282321	1	20	280643	286036	1	22	284883	4	479	286552	1	22	284883	mos_20953.png	mos_Traube.png	mos_Eintagsfliege.png	ok
64763	08/11/2021 15:24:05	1	3	240363	291268	1	24	289122	293717	1	26	293363	3	918	organic	correct	294666	1	26	293363	298665	1	28	297602	3	360	299048	1	28	297602	303447	1	30	301843	3	1403	organic	incorrect	304880	1	31	303962	307945	1	32	306082	2	1638	309611	1	33	308202	mol_07679.png	mol_Schimpanse.png	mol_Pizza.png	ok
64763	08/11/2021 15:24:24	1	4	240363	312327	1	34	310323	314243	1	35	312442	3	1661	inorganic	incorrect	315926	1	36	314562	319141	1	38	318803	2	609	319791	1	38	318803	323323	1	40	323042	2	1697	inorganic	correct	325056	1	40	323042	327422	1	42	327282	4	410	327855	1	42	327282	mac_59169.png	mac_Dartpfeil.png	mac_Medaille.png	ok
64763	08/11/2021 15:24:46	1	5	240363	331621	1	44	331522	334853	1	45	333643	2	473	organic	incorrect	335353	1	45	333643	339884	1	47	337882	2	348	340268	1	48	340002	344283	1	50	344242	2	2042	organic	correct	346349	1	50	344242	348631	1	52	348482	4	392	349048	1	52	348482	foc_02157.png	foc_Brombeere.png	foc_Eule.png	ok
64763	08/11/2021 15:25:08	1	6	240363	353530	1	54	352722	356129	1	55	354842	3	262	organic	correct	356412	1	55	354842	361377	1	58	361202	4	497	361910	1	58	361202	366325	1	60	365442	2	903	organic	correct	367259	1	60	365442	370441	1	62	369682	4	561	371041	1	62	369682	for_15187.png	for_Seehund.png	for_Mandel.png	ok
64763	08/11/2021 15:25:29	1	7	240363	375722	1	64	373922	377622	1	65	376042	3	356	organic	correct	378005	1	65	376042	381154	1	67	380281	4	355	381537	1	67	380281	385952	1	69	384522	2	2245	organic	incorrect	388218	1	70	386642	391134	1	72	390882	2	477	391634	1	72	390882	foa_00207.png	foa_Marienkaefer.png	foa_Aubergine.png	ok
64763	08/11/2021 15:25:51	1	8	240363	396399	1	74	395122	398815	1	75	397241	3	738	inorganic	incorrect	399581	1	76	399362	403913	1	78	403601	3	574	404513	1	78	403601	408894	1	80	407842	2	954	inorganic	correct	409877	1	80	407842	413776	1	82	412081	4	352	414159	1	82	412081	mai_06530.png	mai_Auto.png	mai_Gewehr.png	ok
64763	08/11/2021 15:26:12	1	9	240363	418341	1	84	416322	420424	1	85	418441	2	289	organic	incorrect	420757	1	86	420561	424756	1	87	422682	4	297	425089	1	88	424802	429554	1	90	429041	3	1746	organic	correct	431320	1	91	431162	434536	1	92	433282	2	727	435285	1	92	433282	moe_02012.png	moe_Pommes.png	moe_Waschbaer.png	ok
64763	08/11/2021 15:26:32	1	10	240363	439634	1	94	437521	442183	1	96	441761	2	766	inorganic	correct	442983	1	96	441761	446982	1	98	446002	4	625	447631	1	98	446002	450664	1	100	450241	3	702	inorganic	correct	451397	1	100	450241	454929	1	102	454482	4	430	455395	1	102	454482	fac_02146.png	fac_Ohrring.png	fac_Haarbuerste.png	ok
64763	08/11/2021 15:26:53	1	11	240363	459644	1	104	458721	461360	1	105	460841	3	2443	inorganic	incorrect	463826	1	106	462962	466642	1	107	465081	2	348	467025	1	107	465081	471840	1	110	471442	2	2546	inorganic	correct	474422	1	111	473561	477371	1	112	475681	2	325	477721	1	112	475681	fax_14883.png	fax_Klebeband.png	fax_Fahrrad.png	ok
64763	08/11/2021 15:27:13	1	12	240363	480870	1	114	479921	482636	1	115	482041	2	1451	inorganic	correct	484119	1	115	482041	486618	1	117	486282	3	347	487001	1	117	486282	490850	1	119	490521	0	0	inorganic	miss	490850	1	120	492641	495748	1	121	494761	3	1767	497548	1	122	496881	mas_41366.png	mas_Tisch.png	mas_Bueroklammer.png	ok
64763	08/11/2021 15:27:32	1	13	240363	500830	1	123	499001	503296	1	125	503241	3	751	inorganic	incorrect	504079	1	125	503241	507244	1	126	505361	3	260	507528	1	127	507481	511143	1	128	509601	2	1718	inorganic	correct	512893	1	129	511721	515158	1	130	513841	4	352	515542	1	130	513841	mae_01010.png	mae_Taschenrechner.png	mae_Schach.png	ok
64763	08/11/2021 15:27:52	1	14	240363	519907	1	132	518081	522056	1	133	520201	3	1894	organic	correct	523972	1	134	522321	527021	1	136	526561	2	542	527588	1	136	526561	530787	1	137	528681	2	1681	organic	incorrect	532503	1	138	530801	535418	1	140	535041	2	296	535751	1	140	535041	mog_03090.png	mog_Fledermaus.png	mog_Pilz.png	ok
64763	08/11/2021 15:28:11	1	15	240363	539717	1	142	539281	541783	1	143	541400	2	1077	inorganic	correct	542882	1	143	541400	546614	1	145	545641	4	466	547114	1	145	545641	549997	1	147	549880	0	0	inorganic	miss	549997	1	148	552001	553895	1	148	552001	2	2467	556395	1	150	556240	map_41499.png	map_Globus.png	map_Pfeife.png	ok
64763	08/11/2021 15:28:30	1	16	240363	558011	1	150	556240	561359	1	152	560481	3	303	inorganic	incorrect	561693	1	152	560481	566324	1	154	564720	4	412	566791	1	154	564720	570423	1	156	568961	3	1969	inorganic	correct	572422	1	157	571080	574172	1	158	573200	3	1199	575405	1	159	575321	fag_06539.png	fag_Geschenk.png	fag_Portemonnaie.png	ok
64763	08/11/2021 15:28:51	1	17	240363	577571	1	160	577441	579153	1	160	577441	3	267	inorganic	incorrect	579453	1	160	577441	584218	1	163	583801	3	379	584635	1	163	583801	589200	1	165	588040	3	1421	inorganic	correct	590650	1	166	590160	593649	1	167	592281	4	443	594115	1	167	592281	fai_07494.png	fai_Kommode.png	fai_Foehn.png	ok
64763	08/11/2021 15:29:10	1	18	240363	598764	1	170	598641	600596	1	170	598641	3	1347	organic	correct	601979	1	171	600761	603962	1	172	602880	2	712	604711	1	172	602880	608544	1	174	607121	3	1898	organic	correct	610476	1	175	609241	612975	1	176	611360	2	482	613492	1	176	611360	mot_69374.png	mot_Hotdog.png	mot_Bison.png	ok
64763	08/11/2021 15:29:29	1	19	240363	617157	1	178	615601	620473	1	180	619840	3	313	inorganic	incorrect	620823	1	180	619840	623838	1	181	621960	2	554	624421	1	182	624081	627537	1	183	626200	2	1353	inorganic	correct	628920	1	184	628320	632252	1	184	628320	3	318	632602	1	185	632560	mau_49693.png	mau_Wasserventil.png	mau_Leiter.png	ok
64763	08/11/2021 15:29:49	1	20	240363	636617	1	186	634680	639933	1	188	638921	2	643	inorganic	correct	640599	1	188	638921	645231	1	190	643160	3	495	645748	1	191	645280	648863	1	192	647400	2	1804	inorganic	correct	650696	1	193	649520	653228	1	194	651640	3	289	653545	1	194	651640	fat_12032.png	fat_Einkaufswagen.png	fat_Kleiderbuegel.png	ok
64763	08/11/2021 15:30:11	1	21	240363	656594	1	196	655880	659676	1	197	658000	2	576	inorganic	correct	660276	1	198	660120	664525	1	200	664360	3	796	665374	1	200	664360	668756	1	202	668600	2	722	inorganic	correct	669506	1	202	668600	673455	1	204	672840	4	346	673838	1	204	672840	mat_23275.png	mat_Feuerzeug.png	mat_Helm.png	ok
64763	08/11/2021 15:30:31	1	22	240363	678337	1	206	677080	681752	1	208	681320	2	406	inorganic	correct	682185	1	208	681320	685218	1	209	683440	2	466	685717	1	210	685559	690033	1	212	689800	2	1496	inorganic	correct	691549	1	212	689800	694681	1	214	694039	4	386	695098	1	214	694039	fal_07906.png	fal_Buegeleisen.png	fal_Korb.png	ok
64763	08/11/2021 15:30:51	1	23	240363	698796	1	216	698280	701679	1	217	700400	2	1782	organic	incorrect	703495	1	218	702519	705861	1	219	704640	2	357	706244	1	219	704640	709593	1	221	708879	2	1285	organic	correct	710909	1	221	708879	713258	1	223	713120	2	377	713658	1	223	713120	moh_06446.png	moh_Muecke.png	moh_Birne.png	ok
64763	08/11/2021 15:31:13	1	24	240363	718223	1	225	717359	720439	1	226	719480	3	424	organic	correct	720889	1	226	719480	725604	1	228	723719	3	693	726320	1	229	725839	730236	1	231	730080	3	1770	organic	correct	732035	1	231	730080	735351	1	233	734319	3	396	735784	1	233	734319	foi_03389.png	foi_Apfelkuchen.png	foi_Pflanze.png	ok
64763	08/11/2021 15:31:32	1	25	240363	740482	1	235	738560	743681	1	237	742799	2	1077	inorganic	correct	744781	1	237	742799	747080	1	239	747039	3	1948	749063	1	239	747039	751195	1	240	749159	2	1304	inorganic	correct	752528	1	241	751279	755527	1	242	753400	3	283	755844	1	243	755519	far_00736.png	far_Heissluftballon.png	far_Giesskanne.png	ok
64763	08/11/2021 15:31:54	1	26	240363	759859	1	245	759760	763374	1	246	761879	2	499	inorganic	correct	763924	1	246	761879	768339	1	249	768240	2	346	768723	1	249	768240	773088	1	251	772479	3	1758	inorganic	incorrect	774871	1	252	774599	776670	1	252	774599	2	836	777536	1	253	776720	fan_17286.png	fan_Lampe.png	fan_Klavier.png	ok
64763	08/11/2021 15:32:14	1	27	240363	781152	1	255	780959	783651	1	256	783079	2	1343	inorganic	correct	785017	1	256	783079	788783	1	258	787319	4	368	789182	1	258	787319	793581	1	260	791560	3	624	inorganic	correct	794231	1	261	793679	797446	1	262	795799	4	562	798046	1	263	797919	mak_00987.png	mak_Socken.png	mak_Rucksack.png	ok
64763	08/11/2021 15:32:35	1	28	240363	801362	1	264	800039	803761	1	265	802159	2	1109	inorganic	correct	804894	1	266	804279	808942	1	268	808519	2	372	809342	1	268	808519	813607	1	270	812759	3	2510	inorganic	incorrect	816157	1	271	814879	818889	1	272	816999	2	372	819289	1	273	819119	fap_16329.png	fap_Kissen.png	fap_Knopf.png	ok
64763	08/11/2021 15:32:56	1	29	240363	822604	1	274	821239	826137	1	276	825479	2	447	organic	incorrect	826620	1	276	825479	829969	1	278	829719	3	347	830352	1	278	829719	833884	1	279	831839	2	1787	organic	correct	835700	1	280	833959	838882	1	282	838198	3	619	839532	1	282	838198	foq_16799.png	foq_Pinguin.png	foq_Fenchel.png	ok
64763	08/11/2021 15:33:15	1	30	240363	843764	1	284	842439	845996	1	285	844559	2	1307	inorganic	correct	847329	1	286	846678	849845	1	287	848799	2	450	850328	1	287	848799	853711	1	289	853039	3	1707	inorganic	correct	855443	1	290	855158	859009	1	291	857279	4	413	859459	1	292	859399	mao_11634.png	mao_Stempel.png	mao_Kegel.png	ok
64763	08/11/2021 15:33:35	1	31	240363	862641	1	293	861518	864773	1	294	863638	2	303	organic	incorrect	865123	1	294	863638	869422	1	296	867879	3	317	869772	1	296	867879	873404	1	298	872119	3	1403	organic	incorrect	874837	1	299	874239	878002	1	300	876358	4	431	878469	1	300	876358	mou_01862.png	mou_Kraehe.png	mou_Croissant.png	ok
64763	08/11/2021 15:33:57	1	32	240363	882851	1	303	882719	886233	1	304	884838	3	579	inorganic	incorrect	886849	1	304	884838	889665	1	306	889079	2	1036	890731	1	306	889079	894997	1	308	893318	2	1286	inorganic	correct	896313	1	309	895438	900062	1	311	899678	4	355	900445	1	311	899678	faw_14215.png	faw_Hufeisen.png	faw_Kuechenmaschine.png	ok
64763	08/11/2021 15:34:19	1	33	240363	904910	1	313	903919	907792	1	314	906039	3	936	organic	correct	908759	1	315	908158	912407	1	316	910278	2	618	913074	1	317	912399	916922	6	319	916638	2	2241	organic	incorrect	919188	1	320	918758	921354	1	321	920879	2	413	921804	1	321	920879	fov_15046.png	fov_Zucchini.png	fov_Fisch.png	ok
64763	08/11/2021 15:34:37	1	34	240363	926586	1	323	925118	928702	1	324	927238	3	685	organic	correct	929418	1	325	929359	932667	1	326	931478	4	540	933234	1	326	931478	936066	1	328	935718	3	962	organic	correct	937049	1	328	935718	940215	1	330	939958	4	346	940598	1	330	939958	foe_08236.png	foe_Adler.png	foe_Tannenzapfen.png	ok
64763	08/11/2021 15:34:58	1	35	240363	944596	1	332	944198	947096	1	333	946318	3	466	organic	correct	947595	1	333	946318	951228	1	335	950558	4	1353	952610	1	335	950558	955893	1	337	954798	3	2137	organic	correct	958059	1	338	956918	960624	1	339	959038	3	679	961357	1	340	961158	moj_11821.png	moj_Blatt.png	moj_Walnuss.png	ok
64763	08/11/2021 15:35:19	1	36	240363	965106	1	341	963278	968505	1	343	967518	2	904	organic	incorrect	969438	1	343	967518	973387	1	345	971758	3	451	973870	1	345	971758	977435	1	347	975997	3	2196	organic	correct	979668	1	348	978118	982267	1	349	980238	2	587	982884	1	350	982358	mon_65798.png	mon_Fuchs.png	mon_Kartoffel.png	ok
64763	08/11/2021 15:35:40	1	37	240363	986082	1	351	984478	989031	1	353	988718	3	1144	organic	correct	990198	1	353	988718	993580	1	355	992958	2	852	994463	1	355	992958	998195	1	357	997198	2	1998	organic	correct	1000228	1	358	999317	1002277	1	359	1001438	2	408	1002710	1	359	1001438	mob_00760.png	mob_Igel.png	mob_Kiwi.png	ok
64763	08/11/2021 15:35:58	1	38	240363	1007075	1	361	1005678	1008941	1	362	1007797	2	656	inorganic	correct	1009624	1	362	1007797	1012790	1	364	1012038	4	440	1013273	1	364	1012038	1017888	1	366	1016277	2	1528	inorganic	correct	1019438	1	367	1018398	1021870	1	368	1020518	4	646	1022553	1	368	1020518	fab_06018.png	fab_Staubsauger.png	fab_Kinderwagen.png	ok
64763	08/11/2021 15:36:17	1	39	240363	1025536	1	370	1024757	1027152	1	371	1026878	2	591	inorganic	correct	1027768	1	371	1026878	1032150	1	373	1031117	3	413	1032600	1	373	1031117	1036399	1	375	1035358	2	1092	inorganic	correct	1037515	1	376	1037477	1040047	1	377	1039597	3	983	1041064	1	377	1039597	maj_01545.png	maj_Krawatte.png	maj_Computermaus.png	ok
64763	08/11/2021 15:36:35	1	40	240363	1044029	1	379	1043838	1046195	1	380	1045957	2	604	organic	incorrect	1046829	1	380	1045957	1049594	1	381	1048077	2	421	1050044	1	381	1048077	1053676	1	383	1052317	0	0	organic	miss	1053676	1	385	1056557	1058491	1	385	1056557	2	1553	1060091	1	386	1058678	mof_02408.png	mof_Hahn.png	mof_Spaghetti.png	ok
64763	08/11/2021 15:36:56	1	41	240363	1062873	1	387	1060797	1066439	1	389	1065038	3	385	organic	correct	1066855	1	389	1065038	1070704	1	391	1069277	2	796	1071537	1	392	1071397	1074103	1	393	1073518	2	1542	organic	correct	1075669	1	394	1075637	1079284	1	395	1077757	2	414	1079734	1	395	1077757	fop_00621.png	fop_Koala.png	fop_Mango.png	ok
64763	08/11/2021 15:37:18	1	42	240363	1083216	1	397	1081998	1086582	1	399	1086237	3	633	organic	correct	1087248	1	399	1086237	1091613	1	401	1090477	3	1078	1092730	1	402	1092597	1096795	1	403	1094717	3	1870	organic	correct	1098694	1	404	1096837	1101560	1	406	1101077	3	706	1102293	1	406	1101077	fok_09378.png	fok_Palme.png	fok_Kaenguruh.png	ok
64763	08/11/2021 15:37:40	1	43	240363	1105959	1	408	1105317	1107758	1	409	1107437	2	461	inorganic	correct	1108241	1	409	1107437	1112823	1	411	1111677	3	339	1113189	1	411	1111677	1117555	1	413	1115917	3	1758	inorganic	correct	1119337	1	414	1118037	1122486	1	416	1122277	3	1136	1123653	1	416	1122277	mal_04470.png	mal_Kugelschreiber.png	mal_Drucker.png	ok
64763	08/11/2021 15:38:01	1	44	240363	1126985	1	418	1126517	1129850	1	419	1128636	2	974	organic	incorrect	1130850	1	420	1130757	1135032	1	422	1134997	2	1074	1136132	1	422	1134997	1139714	1	424	1139237	2	2336	organic	correct	1142080	1	425	1141357	1143912	1	426	1143477	2	441	1144379	1	426	1143477	fot_00797.png	fot_Salat.png	fot_Taube.png	ok
64763	08/11/2021 15:38:22	1	45	240363	1148377	1	428	1147717	1151476	1	429	1149837	3	286	organic	correct	1151793	1	429	1149837	1155792	1	431	1154077	3	409	1156225	1	432	1156197	1159840	1	433	1158317	3	1311	organic	correct	1161190	1	434	1160436	1165022	1	436	1164677	3	482	1165538	1	436	1164677	fou_17118.png	fou_Feige.png	fou_Schmetterling.png	ok
64763	08/11/2021 15:38:39	1	46	240363	1169104	1	438	1168916	1171153	1	439	1171037	3	507	inorganic	incorrect	1171686	1	439	1171037	1175185	1	440	1173157	3	811	1176035	1	441	1175276	1179550	1	443	1179517	2	2147	inorganic	incorrect	1181733	1	444	1181637	1183216	1	444	1181637	2	1290	1184532	1	445	1183756	maw_04767.png	maw_Pingpongschlaeger.png	maw_Schlauchboot.png	ok
64763	08/11/2021 15:38:59	1	47	240363	1186598	1	446	1185877	1188414	1	447	1187997	3	719	organic	correct	1189164	1	447	1187997	1191913	1	448	1190116	2	421	1192363	1	449	1192236	1196345	1	450	1194357	2	1606	organic	correct	1197977	1	451	1196477	1201493	1	453	1200716	4	667	1202193	1	453	1200716	foj_08220.png	foj_Rose.png	foj_Waffel.png	ok
64763	08/11/2021 15:39:20	1	48	240363	1206758	1	455	1204956	1209740	1	457	1209196	2	486	organic	incorrect	1210273	1	457	1209196	1213972	1	459	1213436	4	550	1214555	1	459	1213436	1218204	1	461	1217676	2	1961	organic	correct	1220187	1	462	1219797	1223102	1	463	1221916	2	643	1223769	1	463	1221916	mom_59361.png	mom_Loewe.png	mom_Ei.png	ok
64763	08/11/2021 15:39:43	1	49	240363	1227867	1	465	1226157	1231416	1	467	1230396	3	455	organic	correct	1231899	1	467	1230396	1234898	1	469	1234637	2	841	1235765	1	469	1234637	1239797	1	471	1238876	2	1136	organic	correct	1240963	1	471	1238876	1245161	1	473	1243116	4	460	1245645	1	474	1245236	mol_11363.png	mol_Pizza.png	mol_Schimpanse.png	ok
64763	08/11/2021 15:40:05	1	50	240363	1250326	1	476	1249476	1253742	1	477	1251596	3	696	inorganic	incorrect	1254475	1	478	1253716	1258340	1	480	1257956	2	503	1258890	1	480	1257956	1263005	1	482	1262196	3	1197	inorganic	correct	1264238	1	482	1262196	1268420	1	484	1266436	4	662	1269120	1	485	1268556	faj_07849.png	faj_Schuh.png	faj_Parfuem.png	ok
64763	08/11/2021 15:40:25	1	51	240363	1272102	1	486	1270676	1274285	1	487	1272796	3	842	organic	correct	1275151	1	488	1274916	1278783	1	489	1277036	2	1132	1279950	1	490	1279156	1283748	1	492	1283396	2	1373	organic	correct	1285148	1	492	1283396	1288830	1	494	1287636	2	465	1289330	1	494	1287636	mos_23223.png	mos_Eintagsfliege.png	mos_Traube.png	ok
64763	08/11/2021 15:40:44	1	52	240363	1292795	1	496	1291876	1294561	1	497	1293996	3	441	inorganic	incorrect	1295028	1	497	1293996	1298027	1	498	1296116	2	652	1298710	1	499	1298236	1302325	1	500	1300356	2	1272	inorganic	incorrect	1303625	1	501	1302476	1306724	1	502	1304595	4	323	1307090	1	503	1306716	mac_59752.png	mac_Medaille.png	mac_Dartpfeil.png	ok
64763	08/11/2021 15:41:05	1	53	240363	1311722	1	505	1310956	1315004	1	506	1313075	3	1810	organic	correct	1316837	1	507	1315196	1318520	1	508	1317316	2	1414	1319969	1	509	1319435	1321985	1	510	1321555	2	1816	organic	correct	1323835	1	511	1323676	1327484	1	512	1325796	3	299	1327817	1	512	1325796	foc_02664.png	foc_Eule.png	foc_Brombeere.png	ok
64763	08/11/2021 15:41:26	1	54	240363	1332165	1	514	1330035	1335431	1	516	1334276	2	1050	inorganic	correct	1336514	1	517	1336395	1339596	1	518	1338516	4	888	1340512	1	518	1338516	1344178	1	520	1342755	3	625	inorganic	correct	1344828	1	520	1342755	1348576	1	522	1346996	4	677	1349276	1	523	1349116	mai_23761.png	mai_Gewehr.png	mai_Auto.png	ok
64763	08/11/2021 15:41:46	1	55	240363	1353725	1	525	1353355	1355841	1	526	1355476	2	1250	organic	incorrect	1357140	1	526	1355476	1360956	1	528	1359715	3	970	1361955	1	529	1361835	1365637	1	530	1363956	2	2151	organic	incorrect	1367820	1	531	1366075	1369419	1	532	1368195	2	1136	1370586	1	533	1370315	foa_00426.png	foa_Aubergine.png	foa_Marienkaefer.png	ok
64763	08/11/2021 15:42:06	1	56	240363	1373251	1	534	1372435	1376634	1	535	1374555	3	310	organic	correct	1376967	1	536	1376675	1380332	1	537	1378796	2	564	1380932	1	537	1378796	1385347	1	540	1385155	2	1522	organic	correct	1386897	1	540	1385155	1389196	1	541	1387276	4	1886	1391112	1	542	1389395	for_15880.png	for_Mandel.png	for_Seehund.png	ok
64763	08/11/2021 15:42:25	1	57	240363	1393128	1	543	1391515	1396327	1	545	1395755	2	649	inorganic	correct	1397010	1	545	1395755	1401159	1	547	1399995	3	977	1402158	1	548	1402115	1404924	1	549	1404235	2	1545	inorganic	correct	1406507	1	550	1406355	1408839	1	551	1408475	4	1403	1410272	1	551	1408475	fac_02970.png	fac_Haarbuerste.png	fac_Ohrring.png	ok
64763	08/11/2021 15:42:45	1	58	240363	1412855	1	553	1412715	1415004	1	554	1414835	2	413	organic	incorrect	1415454	1	554	1414835	1418486	1	555	1416955	3	389	1418903	1	555	1416955	1422851	1	557	1421195	3	1058	organic	correct	1423934	1	558	1423315	1428099	1	560	1427555	3	1164	1429299	1	560	1427555	moe_23630.png	moe_Waschbaer.png	moe_Pommes.png	ok
64763	08/11/2021 15:43:04	1	59	240363	1432781	1	562	1431795	1435064	1	563	1433914	2	552	inorganic	correct	1435647	1	563	1433914	1439162	1	565	1438155	4	523	1439712	1	565	1438155	1443811	1	567	1442394	2	636	inorganic	correct	1444477	1	567	1442394	1447760	1	569	1446635	4	825	1448609	1	569	1446635	fax_15310.png	fax_Fahrrad.png	fax_Klebeband.png	ok
64763	08/11/2021 15:43:23	1	60	240363	1451158	1	571	1450875	1453274	1	572	1452995	2	600	inorganic	correct	1453907	1	572	1452995	1457689	1	574	1457234	2	799	1458523	1	574	1457234	1462371	1	576	1461475	2	1789	inorganic	incorrect	1464187	1	577	1463595	1466203	1	578	1465714	2	433	1466670	1	578	1465714	mas_41937.png	mas_Bueroklammer.png	mas_Tisch.png	ok
64763	08/11/2021 15:43:44	1	61	240363	1470852	1	580	1469955	1473434	1	581	1472074	2	762	inorganic	correct	1474234	1	582	1474194	1478432	1	583	1476315	2	927	1479382	1	584	1478435	1482798	1	586	1482674	3	1080	inorganic	correct	1483897	1	586	1482674	1487563	1	588	1486914	4	685	1488279	1	588	1486914	fag_06551.png	fag_Portemonnaie.png	fag_Geschenk.png	ok
64763	08/11/2021 15:44:02	1	62	240363	1491078	1	589	1489034	1493394	1	591	1493275	2	932	organic	incorrect	1494360	1	591	1493275	1497576	1	593	1497514	3	690	1498292	1	593	1497514	1501475	1	594	1499635	3	2059	organic	incorrect	1503574	1	595	1501755	1505473	1	596	1503874	2	999	1506523	1	597	1505994	mog_03277.png	mog_Pilz.png	mog_Fledermaus.png	ok
64763	08/11/2021 15:44:21	1	63	240363	1509822	1	598	1508115	1511638	1	599	1510234	2	515	inorganic	correct	1512188	1	599	1510234	1515620	1	601	1514474	4	458	1516103	1	601	1514474	1519718	1	603	1518714	3	722	inorganic	correct	1520468	1	603	1518714	1523734	1	605	1522954	4	522	1524284	1	605	1522954	mae_36426.png	mae_Schach.png	mae_Taschenrechner.png	ok
64763	08/11/2021 15:44:41	1	64	240363	1528116	1	607	1527194	1531448	1	608	1529314	2	942	inorganic	correct	1532414	1	609	1531434	1536280	1	611	1535674	2	637	1536946	1	611	1535674	1541444	1	613	1539915	3	999	inorganic	correct	1542477	1	614	1542034	1545193	1	615	1544154	2	1050	1546276	1	615	1544154	map_49576.png	map_Pfeife.png	map_Globus.png	ok
64763	08/11/2021 15:45:03	1	65	240363	1548775	1	617	1548394	1551708	1	618	1550514	2	1534	organic	incorrect	1553290	1	619	1552634	1556489	1	620	1554754	2	1167	1557689	1	621	1556874	1561521	1	623	1561114	3	1274	organic	correct	1562821	1	623	1561114	1566803	1	625	1565354	2	728	1567552	1	626	1567474	mot_69770.png	mot_Bison.png	mot_Hotdog.png	ok
64763	08/11/2021 15:45:22	1	66	240363	1570701	1	627	1569594	1572367	1	628	1571714	2	561	inorganic	correct	1572950	1	628	1571714	1576849	1	630	1575954	2	1027	1577899	1	630	1575954	1581498	1	632	1580194	2	1300	inorganic	correct	1582830	1	633	1582314	1585580	1	634	1584434	2	907	1586513	1	634	1584434	mau_58144.png	mau_Leiter.png	mau_Wasserventil.png	ok
64763	08/11/2021 15:45:41	1	67	240363	1589262	1	636	1588674	1591777	1	637	1590794	2	778	inorganic	correct	1592577	1	637	1590794	1595510	1	639	1595033	3	1464	1597009	1	639	1595033	1599691	1	641	1599274	3	1455	inorganic	correct	1601174	1	641	1599274	1604940	1	643	1603513	3	379	1605373	1	643	1603513	fat_14140.png	fat_Kleiderbuegel.png	fat_Einkaufswagen.png	ok
64763	08/11/2021 15:46:03	1	68	240363	1608688	1	645	1607754	1610838	1	646	1609873	3	1061	inorganic	incorrect	1611921	1	646	1609873	1615636	1	648	1614114	2	1093	1616752	1	649	1616234	1620684	1	651	1620474	2	1033	inorganic	correct	1621751	1	651	1620474	1625866	1	653	1624713	4	494	1626382	1	653	1624713	fai_07637.png	fai_Foehn.png	fai_Kommode.png	ok
64763	08/11/2021 15:46:25	1	69	240363	1630914	1	655	1628954	1633563	1	657	1633193	2	922	organic	incorrect	1634513	1	657	1633193	1638378	1	659	1637434	2	978	1639395	1	659	1637434	1643410	1	661	1641673	3	1295	organic	correct	1644726	1	662	1643793	1647275	1	663	1645914	4	1124	1648425	1	664	1648033	foi_05187.png	foi_Pflanze.png	foi_Apfelkuchen.png	ok
64763	08/11/2021 15:46:46	1	70	240363	1652357	1	666	1652274	1654423	1	666	1652274	3	807	inorganic	incorrect	1655273	1	667	1654394	1658388	1	668	1656513	2	880	1659305	1	669	1658633	1662853	1	670	1660754	3	856	inorganic	correct	1663736	1	671	1662873	1667902	1	673	1667113	4	478	1668402	1	673	1667113	mat_23754.png	mat_Helm.png	mat_Feuerzeug.png	ok
64763	08/11/2021 15:47:05	1	71	240363	1673000	1	675	1671353	1674933	1	676	1673473	3	1735	organic	correct	1676699	1	677	1675593	1678781	1	678	1677714	2	554	1679364	1	678	1677714	1682580	1	680	1681953	3	1556	organic	correct	1684163	1	681	1684073	1687478	1	682	1686193	2	497	1688012	1	682	1686193	moh_07125.png	moh_Birne.png	moh_Muecke.png	ok
64763	08/11/2021 15:47:26	1	72	240363	1692510	1	684	1690433	1695909	1	686	1694673	2	638	inorganic	correct	1696575	1	686	1694673	1700641	1	688	1698913	2	1153	1701840	1	689	1701033	1705372	1	691	1705273	3	1423	inorganic	correct	1706822	1	691	1705273	1709771	1	693	1709513	4	1265	1711070	1	693	1709513	fal_07977.png	fal_Korb.png	fal_Buegeleisen.png	ok
64763	08/11/2021 15:47:47	1	73	240363	1713336	1	694	1711633	1716119	1	696	1715872	3	1475	inorganic	incorrect	1717618	1	696	1715872	1720067	1	697	1717993	2	545	1720650	1	698	1720113	1724582	1	700	1724353	2	955	inorganic	correct	1725565	1	700	1724353	1729214	1	702	1728593	4	682	1729931	1	702	1728593	mak_03979.png	mak_Rucksack.png	mak_Socken.png	ok
64763	08/11/2021 15:48:07	1	74	240363	1734063	1	704	1732833	1736029	1	705	1734953	2	1227	inorganic	correct	1737278	1	706	1737073	1740877	1	707	1739192	2	942	1741843	1	708	1741313	1744826	1	709	1743433	2	2145	inorganic	correct	1746992	1	710	1745553	1749941	1	712	1749793	0	0	1749941	1	713	1751913	fap_17119.png	fap_Knopf.png	fap_Kissen.png	ok
64763	08/11/2021 15:48:23	1	75	240363	1754172	1	714	1754033	1755805	1	714	1754033	3	698	inorganic	incorrect	1756538	1	715	1756152	1759337	1	716	1758273	3	663	1760037	1	716	1758273	1762720	1	718	1762512	3	1752	inorganic	correct	1764502	1	718	1762512	1766435	1	719	1764633	4	552	1767018	1	720	1766753	fan_18894.png	fan_Klavier.png	fan_Lampe.png	ok
64763	08/11/2021 15:48:44	1	76	240363	1770717	1	721	1768873	1773599	1	723	1773113	2	1254	inorganic	correct	1774882	1	723	1773113	1777015	1	724	1775233	3	1068	1778114	1	725	1777352	1781963	1	727	1781593	3	979	inorganic	correct	1782963	1	727	1781593	1787128	1	729	1785832	4	721	1787878	1	729	1785832	far_06518.png	far_Giesskanne.png	far_Heissluftballon.png	ok
64763	08/11/2021 15:49:03	1	77	240363	1791410	1	731	1790073	1794492	1	733	1794312	2	989	inorganic	correct	1795508	1	733	1794312	1799024	1	735	1798553	2	532	1799607	1	735	1798553	1803023	1	737	1802792	2	946	inorganic	correct	1803989	1	737	1802792	1806621	1	738	1804913	3	1790	1808437	1	739	1807033	faw_14685.png	faw_Kuechenmaschine.png	faw_Hufeisen.png	ok
64763	08/11/2021 15:49:23	1	78	240363	1810353	1	740	1809152	1812036	1	741	1811272	2	988	inorganic	correct	1813053	1	741	1811272	1816268	1	743	1815512	2	1417	1817718	1	744	1817632	1821000	1	745	1819752	2	1670	inorganic	correct	1822699	1	746	1821873	1825815	1	747	1823992	2	954	1826798	1	748	1826112	mao_19000.png	mao_Kegel.png	mao_Stempel.png	ok
64763	08/11/2021 15:49:44	1	79	240363	1830580	1	750	1830353	1833846	1	751	1832472	2	981	organic	incorrect	1834862	1	752	1834592	1838244	1	753	1836713	2	674	1838944	1	754	1838832	1842726	1	755	1840952	2	1923	organic	incorrect	1844675	1	756	1843072	1847541	1	758	1847312	2	939	1848507	1	758	1847312	mou_06524.png	mou_Croissant.png	mou_Kraehe.png	ok
64763	08/11/2021 15:50:03	1	80	240363	1851156	1	759	1849432	1853056	1	760	1851552	2	1364	organic	incorrect	1854455	1	761	1853672	1857438	1	762	1855792	2	1948	1859420	1	763	1857912	1862286	1	765	1862152	3	2787	organic	correct	1865102	1	766	1864272	1866118	1	766	1864272	2	727	1866868	1	767	1866392	foq_17341.png	foq_Fenchel.png	foq_Pinguin.png	ok
64763	08/11/2021 15:50:25	1	81	240363	1870217	1	768	1868511	1873449	1	770	1872752	2	1160	organic	incorrect	1874632	1	770	1872752	1878247	1	772	1876992	2	897	1879180	1	773	1879112	1883262	1	774	1881232	3	1505	organic	correct	1884795	1	775	1883352	1888144	1	777	1887592	4	682	1888860	1	777	1887592	foe_08514.png	foe_Tannenzapfen.png	foe_Adler.png	ok
64763	08/11/2021 15:50:46	1	82	240363	1892859	1	779	1891831	1895225	1	780	1893952	3	411	organic	correct	1895658	1	780	1893952	1900123	1	782	1898192	2	1644	1901806	1	783	1900311	1905455	1	785	1904552	2	2236	organic	correct	1907721	1	786	1906671	1909986	1	787	1908791	4	597	1910620	1	787	1908791	fov_15193.png	fov_Fisch.png	fov_Zucchini.png	ok
64763	08/11/2021 15:51:10	1	83	240363	1913752	1	789	1913032	1916934	1	790	1915151	2	1668	organic	incorrect	1918633	1	791	1917272	1922082	1	793	1921512	2	1786	1923898	1	794	1923631	1927397	1	795	1925752	3	1306	organic	correct	1928730	1	796	1927872	1932296	1	798	1932111	2	1602	1933928	1	798	1932111	moj_11860.png	moj_Walnuss.png	moj_Blatt.png	ok
64763	08/11/2021 15:51:27	1	84	240363	1937261	1	800	1936352	1939410	1	801	1938471	2	1039	organic	incorrect	1940476	1	801	1938471	1943109	1	803	1942712	3	1257	1944391	1	803	1942712	1947424	1	805	1946951	3	2032	organic	correct	1949506	1	806	1949071	1951139	1	806	1949071	2	1178	1952339	1	807	1951192	mon_69587.png	mon_Kartoffel.png	mon_Fuchs.png	ok
64763	08/11/2021 15:51:47	1	85	240363	1954705	1	808	1953311	1957270	1	809	1955431	2	883	inorganic	correct	1958187	1	810	1957552	1962235	1	812	1961791	4	891	1963152	1	812	1961791	1965934	1	813	1963911	3	869	inorganic	correct	1966834	1	814	1966032	1970266	1	815	1968151	4	1128	1971416	1	816	1970271	fab_06286.png	fab_Kinderwagen.png	fab_Staubsauger.png	ok
64763	08/11/2021 15:52:06	1	86	240363	1974281	1	817	1972391	1977147	1	819	1976631	3	1421	inorganic	incorrect	1978597	1	819	1976631	1980629	1	820	1978751	2	1721	1982379	1	821	1980871	1984495	1	822	1982991	2	2080	inorganic	correct	1986610	1	823	1985111	1989176	1	824	1987231	2	887	1990093	1	825	1989351	maj_01546.png	maj_Computermaus.png	maj_Krawatte.png	ok
64763	08/11/2021 15:52:27	1	87	240363	1993908	1	827	1993591	1997040	1	828	1995711	3	710	organic	correct	1997790	1	828	1995711	2002239	1	831	2002071	2	1419	2003688	1	831	2002071	2006254	1	832	2004191	2	1703	organic	incorrect	2007987	1	833	2006311	2010536	1	834	2008431	2	1784	2012352	1	835	2010551	mob_22833.png	mob_Kiwi.png	mob_Igel.png	ok
64763	08/11/2021 15:52:46	1	88	240363	2014218	1	836	2012671	2016900	1	837	2014791	2	1491	organic	incorrect	2018416	1	838	2016911	2020232	1	839	2019031	2	1940	2022198	1	840	2021151	2025497	1	842	2025391	3	1411	organic	incorrect	2026930	1	842	2025391	2029463	1	843	2027511	2	1205	2030696	1	844	2029631	mof_06901.png	mof_Spaghetti.png	mof_Hahn.png	ok
64763	08/11/2021 15:53:07	1	89	240363	2033345	1	845	2031751	2035894	1	846	2033871	3	1231	organic	correct	2037160	1	847	2035991	2040992	1	849	2040231	2	1391	2042408	1	850	2042351	2045157	1	851	2044470	3	987	organic	correct	2046190	1	851	2044470	2050256	1	853	2048711	2	555	2050839	1	853	2048711	fok_09860.png	fok_Kaenguruh.png	fok_Palme.png	ok
64763	08/11/2021 15:53:29	1	90	240363	2054821	1	855	2052950	2058036	1	857	2057191	2	578	organic	incorrect	2058636	1	857	2057191	2062235	1	859	2061430	2	1205	2063468	1	859	2061430	2066084	1	861	2065671	2	1408	organic	correct	2067516	1	861	2065671	2071065	1	863	2069910	2	756	2071848	1	863	2069910	fop_07937.png	fop_Mango.png	fop_Koala.png	ok
64763	08/11/2021 15:53:49	1	91	240363	2076313	1	866	2076270	2078996	1	867	2078391	3	758	organic	correct	2079779	1	867	2078391	2084177	1	869	2082630	3	919	2085127	1	870	2084750	2088226	1	871	2086871	2	1763	organic	correct	2090025	1	872	2088991	2092591	1	873	2091110	2	829	2093458	1	874	2093230	fot_06092.png	fot_Taube.png	fot_Salat.png	ok
64763	08/11/2021 15:54:09	1	92	240363	2096240	1	875	2095351	2098756	1	876	2097471	2	436	inorganic	correct	2099239	1	876	2097471	2103121	1	878	2101710	3	319	2103471	1	878	2101710	2107086	1	880	2105950	2	1259	inorganic	correct	2108369	1	881	2108070	2112435	1	883	2112311	2	1282	2113751	1	883	2112311	mal_20552.png	mal_Drucker.png	mal_Kugelschreiber.png	ok
64763	08/11/2021 15:54:29	1	93	240363	2116067	1	884	2114430	2118133	1	885	2116550	3	684	organic	correct	2118849	1	886	2118671	2123131	1	888	2122910	4	1470	2124630	1	888	2122910	2126546	1	889	2125030	2	1278	organic	correct	2127846	1	890	2127151	2131861	1	892	2131390	4	868	2132761	1	892	2131390	fou_18966.png	fou_Schmetterling.png	fou_Feige.png	ok
64763	08/11/2021 15:54:49	1	94	240363	2136027	1	894	2135631	2137626	1	894	2135631	2	979	inorganic	correct	2138642	1	895	2137750	2142624	1	897	2141990	2	649	2143307	1	897	2141990	2147856	1	899	2146230	2	1920	inorganic	correct	2149805	1	900	2148350	2151588	1	901	2150471	0	0	2151588	1	902	2152590	maw_22459.png	maw_Schlauchboot.png	maw_Pingpongschlaeger.png	ok
64763	08/11/2021 15:55:06	1	95	240363	2156003	1	903	2154710	2157603	1	904	2156830	2	1182	organic	incorrect	2158819	1	904	2156830	2160985	1	905	2158950	3	1282	2162301	1	906	2161070	2165067	1	907	2163190	2	2501	organic	correct	2167599	1	909	2167430	2170415	1	910	2169550	2	1183	2171631	1	910	2169550	mom_59641.png	mom_Ei.png	mom_Loewe.png	ok
64763	08/11/2021 15:55:26	1	96	240363	2173897	1	912	2173790	2176496	1	913	2175910	2	968	organic	incorrect	2177496	1	913	2175910	2181145	1	915	2180150	2	1181	2182361	1	916	2182270	2186426	1	917	2184390	3	1000	organic	correct	2187459	1	918	2186510	2190591	1	919	2188630	4	745	2191358	1	920	2190750	foj_08937.png	foj_Waffel.png	foj_Rose.png	ok
