ID	DateTime	Run	Encoding_Trial	FaceBase_OnsetTime	FaceBase_OnsetTimeUncertainty	FaceBase_fMRI_Pulse	FaceBase_fMRI_PulseTime	Assoc_Encoding_OnsetTime	Assoc_Encoding_OnsetTimeUncertainty	Assoc_Encoding_fMRI_Pulse	Assoc_Encoding_fMRI_PulseTime	Immediate_Recall_OnsetTime	Immediate_Recall_OnsetTimeUncertainty	Immediate_Recall_fMRI_Pulse	Immediate_Recall_fMRI_PulseTime	Immediate_Recall_Pressed_Button	Immediate_Recall_RT	Immediate_Recall_Accuracy	Immediate_Recall_Feedback_OnsetTime	Immediate_Recall_Feedback_OnsetTimeUncertainty	Immediate_Recall_Feedback_fMRI_Pulse	Immediate_Recall_Feedback_fMRI_PulseTime	Presented_Person	Presented_Object	Object_Category	First_pulse_time	TrialStatus
64911	07/13/2021 14:44:14	1	1	319875	1	6	318691	322824	1	7	320811	326956	1	9	325051	2	765	correct	327772	1	10	327171	mau_49693.png	mau_Wasserventil.png	inorganic	308091	ok
64911	07/13/2021 14:44:25	1	2	331238	1	11	329291	333770	1	13	333532	336852	1	14	335651	2	1031	correct	337919	1	15	337771	fat_12032.png	fat_Einkaufswagen.png	inorganic	308091	ok
64911	07/13/2021 14:44:34	1	3	341767	1	16	339891	343600	1	17	342012	347366	1	19	346251	3	934	correct	348332	1	19	346251	foq_16799.png	foq_Pinguin.png	organic	308091	ok
64911	07/13/2021 14:44:44	1	4	350864	1	21	350491	354147	1	22	352611	357645	1	24	356851	2	294	correct	357962	1	24	356851	mae_01010.png	mae_Taschenrechner.png	inorganic	308091	ok
64911	07/13/2021 14:44:54	1	5	361211	1	26	361091	363177	1	26	361091	366576	1	28	365330	3	1708	correct	368308	1	29	367451	mof_02408.png	mof_Spaghetti.png	organic	308091	ok
64911	07/13/2021 14:45:06	1	6	371291	1	30	369571	373423	1	31	371691	378338	1	34	378051	2	550	correct	378922	1	34	378051	far_00736.png	far_Giesskanne.png	inorganic	308091	ok
64911	07/13/2021 14:45:15	1	7	383237	1	36	382291	384903	1	37	384411	388135	1	38	386531	3	785	correct	388952	1	39	388650	mog_03090.png	mog_Pilz.png	organic	308091	ok
64911	07/13/2021 14:45:28	1	8	392350	1	40	390771	395466	1	42	395011	400214	1	44	399251	3	604	correct	400847	1	44	399251	mom_59361.png	mom_Loewe.png	organic	308091	ok
64911	07/13/2021 14:45:39	1	9	404979	1	46	403490	407412	1	47	405610	412177	1	50	411970	2	435	correct	412644	1	50	411970	fag_06539.png	fag_Geschenk.png	inorganic	308091	ok
64911	07/13/2021 14:45:50	1	10	416009	1	51	414090	417925	1	52	416211	422240	1	54	420450	3	827	incorrect	423107	1	55	422571	maj_01545.png	maj_Computermaus.png	inorganic	308091	ok
64911	07/13/2021 14:46:03	1	11	426989	1	57	426810	430171	1	58	428930	434903	1	60	433171	3	1820	correct	436752	1	61	435290	mou_01862.png	mou_Kraehe.png	organic	308091	ok
64911	07/13/2021 14:46:15	1	12	440151	1	63	439531	442167	1	64	441651	446932	1	66	445890	2	301	correct	447265	1	66	445890	fai_07494.png	fai_Kommode.png	inorganic	308091	ok
64911	07/13/2021 14:46:26	1	13	452147	1	68	450130	454329	1	69	452250	458578	1	71	456491	3	321	correct	458928	1	72	458610	fot_00797.png	fot_Salat.png	organic	308091	ok
64911	07/13/2021 14:46:38	1	14	462660	1	73	460730	465742	1	75	464970	469741	1	77	469210	3	1074	correct	470841	1	77	469210	for_15187.png	for_Seehund.png	organic	308091	ok
64911	07/13/2021 14:46:50	1	15	474789	1	79	473450	477205	1	80	475570	482137	1	83	481930	2	520	correct	482687	1	83	481930	mak_00987.png	mak_Socken.png	inorganic	308091	ok
64911	07/13/2021 14:47:02	1	16	486852	1	85	486170	490184	1	86	488290	494016	1	88	492530	3	313	correct	494366	1	88	492530	fop_00621.png	fop_Koala.png	organic	308091	ok
64911	07/13/2021 14:47:14	1	17	498631	1	90	496770	500764	1	91	498890	505562	1	94	505250	3	565	correct	506162	1	94	505250	moe_02012.png	moe_Waschbaer.png	organic	308091	ok
64911	07/13/2021 14:47:23	1	18	510544	1	96	509490	513110	1	97	511610	516508	1	99	515850	2	1031	correct	517575	1	99	515850	mai_06530.png	mai_Gewehr.png	inorganic	308091	ok
64911	07/13/2021 14:47:32	1	19	520024	1	100	517970	522123	1	101	520091	525305	1	103	524330	2	1110	correct	526438	1	103	524330	mas_41366.png	mas_Tisch.png	inorganic	308091	ok
64911	07/13/2021 14:47:42	1	20	528871	1	105	528570	531520	1	106	530690	534819	1	107	532810	2	270	correct	535119	1	108	534929	mac_59169.png	mac_Dartpfeil.png	inorganic	308091	ok
64911	07/13/2021 14:47:53	1	21	539251	1	110	539170	541333	1	111	541290	546265	1	113	545530	3	523	correct	546815	1	113	545530	moj_11821.png	moj_Blatt.png	organic	308091	ok
64911	07/13/2021 14:48:05	1	22	550247	1	115	549769	552346	1	116	551890	557295	1	118	556130	2	911	correct	558228	1	118	556130	faw_14215.png	faw_Hufeisen.png	inorganic	308091	ok
64911	07/13/2021 14:48:16	1	23	561610	1	120	560370	563576	1	121	562490	567758	1	123	566729	3	330	correct	568124	1	123	566729	moh_06446.png	moh_Birne.png	organic	308091	ok
64911	07/13/2021 14:48:27	1	24	573073	1	125	570970	574789	1	126	573089	578654	1	128	577330	3	775	correct	579454	1	128	577330	fou_17118.png	fou_Feige.png	organic	308091	ok
64911	07/13/2021 14:48:37	1	25	583569	1	130	581569	586352	1	132	585810	589834	1	133	587930	2	1466	correct	591333	1	134	590049	fap_16329.png	fap_Knopf.png	inorganic	308091	ok
64911	07/13/2021 14:48:49	1	26	593899	1	135	592170	596481	1	137	596409	601480	1	139	600650	3	1185	correct	602696	1	139	600650	foe_08236.png	foe_Tannenzapfen.png	organic	308091	ok
64911	07/13/2021 14:48:59	1	27	605978	1	141	604889	609194	1	143	609130	612826	1	144	611249	3	1079	correct	613942	1	145	613369	mol_07679.png	mol_Schimpanse.png	organic	308091	ok
64911	07/13/2021 14:49:11	1	28	616391	1	146	615489	618624	1	147	617610	622839	1	149	621849	2	356	correct	623239	1	149	621849	fal_07906.png	fal_Buegeleisen.png	inorganic	308091	ok
64911	07/13/2021 14:49:23	1	29	627554	1	151	626089	629587	1	152	628209	634552	1	154	632450	2	2558	correct	637134	1	156	636690	fac_02146.png	fac_Haarbuerste.png	inorganic	308091	ok
64911	07/13/2021 14:49:32	1	30	639767	1	157	638809	641400	1	158	640929	645315	1	160	645169	3	1454	correct	646798	1	160	645169	mob_00760.png	mob_Igel.png	organic	308091	ok
64911	07/13/2021 14:49:44	1	31	648880	1	161	647289	652279	1	163	651529	656478	1	165	655769	3	518	correct	657028	1	165	655769	foc_02157.png	foc_Eule.png	organic	308091	ok
64911	07/13/2021 14:49:54	1	32	661310	1	167	660009	663975	1	168	662129	667074	1	170	666369	2	1517	correct	668624	1	171	668489	fan_17286.png	fan_Klavier.png	inorganic	308091	ok
64911	07/13/2021 14:50:05	1	33	670890	1	172	670609	673939	1	173	672729	677004	1	175	676969	3	2100	correct	679137	1	176	679089	fok_09378.png	fok_Palme.png	organic	308091	ok
64911	07/13/2021 14:50:17	1	34	682236	1	177	681210	684868	1	178	683330	689867	1	181	689689	3	1643	correct	691533	1	181	689689	foi_03389.png	foi_Apfelkuchen.png	organic	308091	ok
64911	07/13/2021 14:50:28	1	35	694198	1	183	693929	697214	1	184	696048	700630	1	186	700289	3	850	correct	701513	1	186	700289	mos_20953.png	mos_Eintagsfliege.png	organic	308091	ok
64911	07/13/2021 14:50:40	1	36	705345	1	188	704528	707994	1	189	706649	712925	1	191	710888	2	475	correct	713425	1	192	713009	maw_04767.png	maw_Pingpongschlaeger.png	inorganic	308091	ok
64911	07/13/2021 14:50:51	1	37	717124	1	193	715129	720423	1	195	719368	724838	1	197	723610	2	241	correct	725105	1	197	723610	fab_06018.png	fab_Kinderwagen.png	inorganic	308091	ok
64911	07/13/2021 14:51:02	1	38	728437	1	199	727848	730303	1	200	729969	734518	1	202	734208	2	217	correct	734768	1	202	734208	mao_11634.png	mao_Stempel.png	inorganic	308091	ok
64911	07/13/2021 14:51:12	1	39	739217	1	204	738450	741532	1	205	740569	745764	1	207	744809	2	1882	correct	747680	1	208	746930	fax_14883.png	fax_Fahrrad.png	inorganic	308091	ok
64911	07/13/2021 14:51:25	1	40	749380	1	209	749049	752929	1	210	751169	757177	1	212	755409	3	494	correct	757694	1	213	757528	mot_69374.png	mot_Hotdog.png	organic	308091	ok
64911	07/13/2021 14:51:38	1	41	762176	1	215	761769	765591	1	216	763889	769540	1	218	768129	2	497	correct	770090	1	218	768129	map_41499.png	map_Pfeife.png	inorganic	308091	ok
64911	07/13/2021 14:51:49	1	42	774671	1	221	774489	777754	1	222	776609	781136	1	224	780849	3	401	correct	781569	1	224	780849	mon_65798.png	mon_Kartoffel.png	organic	308091	ok
64911	07/13/2021 14:52:01	1	43	786134	1	226	785089	788733	1	227	787209	793198	1	229	791449	0	0	miss	793198	1	231	795689	foj_08220.png	foj_Waffel.png	organic	308091	ok
64911	07/13/2021 14:52:11	1	44	798380	1	232	797809	801162	1	233	799929	804361	1	235	804169	2	1005	correct	805394	1	235	804169	faj_07783.png	faj_Parfuem.png	inorganic	308091	ok
64911	07/13/2021 14:52:21	1	45	807910	1	236	806289	809843	1	237	808409	813825	1	239	812649	3	366	correct	814225	1	239	812649	fov_15046.png	fov_Fisch.png	organic	308091	ok
64911	07/13/2021 14:52:31	1	46	818440	1	241	816889	820056	1	242	819009	823771	1	244	823249	3	1204	correct	825004	1	244	823249	foa_00207.png	foa_Marienkaefer.png	organic	308091	ok
64911	07/13/2021 14:52:43	1	47	828387	1	246	827489	830719	1	247	829609	834818	1	249	833849	2	896	correct	835751	1	249	833849	mat_23275.png	mat_Feuerzeug.png	inorganic	308091	ok
64911	07/13/2021 14:52:55	1	48	839916	1	251	838089	842682	1	253	842329	846264	1	254	844449	2	845	correct	847147	1	255	846569	mal_04470.png	mal_Drucker.png	inorganic	308091	ok
64911	07/13/2021 14:53:06	1	49	851512	1	257	850809	854061	1	258	852929	858576	1	260	857168	2	302	correct	858910	1	260	857168	mau_58144.png	mau_Leiter.png	inorganic	308091	ok
64911	07/13/2021 14:53:16	1	50	862642	1	262	861409	864841	1	263	863528	869556	1	265	867769	2	219	correct	869823	1	265	867769	fat_14140.png	fat_Kleiderbuegel.png	inorganic	308091	ok
64911	07/13/2021 14:53:27	1	51	873355	1	267	872008	875337	1	268	874129	880052	1	270	878368	3	354	correct	880436	1	270	878368	foq_17341.png	foq_Fenchel.png	organic	308091	ok
64911	07/13/2021 14:53:38	1	52	883485	1	272	882609	886117	1	273	884729	890566	1	275	888968	2	707	correct	891299	1	276	891089	mae_36426.png	mae_Schach.png	inorganic	308091	ok
64911	07/13/2021 14:53:49	1	53	894581	1	277	893209	897630	1	279	897448	900779	1	280	899569	3	1557	correct	902362	1	281	901688	mof_06901.png	mof_Hahn.png	organic	308091	ok
64911	07/13/2021 14:54:01	1	54	905960	1	283	905928	908743	1	284	908049	913458	1	286	912288	2	483	correct	913974	1	286	912288	far_06518.png	far_Heissluftballon.png	inorganic	308091	ok
64911	07/13/2021 14:54:12	1	55	917723	1	288	916528	919839	1	289	918648	924537	1	291	922889	3	307	correct	924871	1	291	922889	mog_03277.png	mog_Fledermaus.png	organic	308091	ok
64911	07/13/2021 14:54:26	1	56	929452	1	294	929248	932701	1	295	931369	937633	1	297	935608	3	683	correct	938349	1	298	937728	mom_59641.png	mom_Ei.png	organic	308091	ok
64911	07/13/2021 14:54:37	1	57	942931	1	300	941968	944930	1	301	944088	948563	1	303	948328	2	1562	correct	950162	1	303	948328	fag_06551.png	fag_Portemonnaie.png	inorganic	308091	ok
64911	07/13/2021 14:54:48	1	58	953711	1	305	952568	955494	1	306	954689	960409	1	308	958928	2	2342	correct	962774	1	309	961048	maj_01546.png	maj_Krawatte.png	inorganic	308091	ok
64911	07/13/2021 14:54:58	1	59	965374	1	311	965288	967540	1	312	967408	971022	1	313	969528	3	549	correct	971605	1	313	969528	mou_06524.png	mou_Croissant.png	organic	308091	ok
64911	07/13/2021 14:55:10	1	60	974787	1	315	973768	978086	1	317	978007	981701	1	318	980128	2	1346	correct	983084	1	319	982248	fai_07637.png	fai_Foehn.png	inorganic	308091	ok
64911	07/13/2021 14:55:22	1	61	986850	1	321	986487	990082	1	322	988608	994380	1	324	992848	0	0	miss	994380	1	326	997088	fot_06092.png	fot_Taube.png	organic	308091	ok
64911	07/13/2021 14:55:32	1	62	998629	1	326	997088	1000362	1	327	999208	1004844	1	329	1003448	3	1327	correct	1006193	1	330	1005568	for_15880.png	for_Mandel.png	organic	308091	ok
64911	07/13/2021 14:55:43	1	63	1009076	1	331	1007688	1012558	1	333	1011928	1016290	1	335	1016167	2	334	correct	1016673	1	335	1016167	mak_03979.png	mak_Rucksack.png	inorganic	308091	ok
64911	07/13/2021 14:55:52	1	64	1020455	1	337	1020408	1022588	1	338	1022528	1025986	1	339	1024647	3	462	correct	1026470	1	339	1024647	fop_07937.png	fop_Mango.png	organic	308091	ok
64911	07/13/2021 14:56:03	1	65	1029369	1	341	1028888	1032751	1	342	1031008	1036566	1	344	1035247	3	1075	correct	1037666	1	345	1037368	moe_23630.png	moe_Pommes.png	organic	308091	ok
64911	07/13/2021 14:56:14	1	66	1039965	1	346	1039487	1042014	1	347	1041607	1046180	1	349	1045848	2	388	correct	1046596	1	349	1045848	mai_23761.png	mai_Auto.png	inorganic	308091	ok
64911	07/13/2021 14:56:26	1	67	1050845	1	351	1050087	1054327	1	352	1052208	1057726	1	354	1056447	2	906	correct	1058659	1	355	1058567	mas_41937.png	mas_Bueroklammer.png	inorganic	308091	ok
64911	07/13/2021 14:56:37	1	68	1063007	1	357	1062807	1065223	1	358	1064927	1070205	1	360	1069168	2	1138	correct	1071371	1	361	1071287	mac_59752.png	mac_Medaille.png	inorganic	308091	ok
64911	07/13/2021 14:56:47	1	69	1073987	1	362	1073407	1075670	1	363	1075527	1080135	1	365	1079767	3	447	correct	1080618	1	365	1079767	moj_11860.png	moj_Walnuss.png	organic	308091	ok
64911	07/13/2021 14:56:57	1	70	1084200	1	367	1084008	1086549	1	368	1086127	1090748	1	370	1090367	2	534	correct	1091314	1	370	1090367	faw_14685.png	faw_Kuechenmaschine.png	inorganic	308091	ok
64911	07/13/2021 14:57:06	1	71	1094413	1	371	1092488	1096063	1	372	1094607	1099712	1	374	1098847	3	460	correct	1100195	1	374	1098847	moh_07125.png	moh_Muecke.png	organic	308091	ok
64911	07/13/2021 14:57:19	1	72	1103060	1	375	1100967	1106543	1	377	1105207	1111491	1	379	1109447	3	1605	correct	1113140	1	380	1111567	fou_18966.png	fou_Schmetterling.png	organic	308091	ok
64911	07/13/2021 14:57:29	1	73	1115606	1	381	1113687	1117556	1	382	1115807	1122204	1	385	1122167	2	311	correct	1122537	1	385	1122167	fap_17119.png	fap_Kissen.png	inorganic	308091	ok
64911	07/13/2021 14:57:39	1	74	1125753	1	386	1124287	1128435	1	387	1126407	1132017	1	389	1130647	3	1175	correct	1133217	1	390	1132767	foe_08514.png	foe_Adler.png	organic	308091	ok
64911	07/13/2021 14:57:49	1	75	1135683	1	391	1134887	1137882	1	392	1137007	1141581	1	394	1141247	3	1444	correct	1143047	1	394	1141247	mol_11363.png	mol_Pizza.png	organic	308091	ok
64911	07/13/2021 14:58:01	1	76	1145996	1	396	1145487	1148978	1	397	1147606	1153810	1	399	1151847	2	445	correct	1154293	1	400	1153967	fal_07977.png	fal_Korb.png	inorganic	308091	ok
64911	07/13/2021 14:58:12	1	77	1157625	1	401	1156086	1160674	1	403	1160327	1163957	1	404	1162446	2	872	correct	1164873	1	405	1164567	fac_02970.png	fac_Ohrring.png	inorganic	308091	ok
64911	07/13/2021 14:58:22	1	78	1168588	1	406	1166687	1170304	1	407	1168807	1175103	1	409	1173047	3	868	correct	1176002	1	410	1175167	mob_22833.png	mob_Kiwi.png	organic	308091	ok
64911	07/13/2021 14:58:34	1	79	1179318	1	411	1177286	1182434	1	413	1181527	1186699	1	415	1185766	3	337	correct	1187065	1	415	1185766	foc_02664.png	foc_Brombeere.png	organic	308091	ok
64911	07/13/2021 14:58:46	1	80	1190897	1	417	1190007	1193980	1	418	1192127	1197662	1	420	1196366	2	925	correct	1198612	1	421	1198487	fan_18894.png	fan_Lampe.png	inorganic	308091	ok
64911	07/13/2021 14:58:56	1	81	1202577	1	422	1200606	1204843	1	423	1202726	1208408	1	425	1206967	3	1300	correct	1209741	1	426	1209086	fok_09860.png	fok_Kaenguruh.png	organic	308091	ok
64911	07/13/2021 14:59:07	1	82	1212540	1	427	1211206	1215556	1	429	1215446	1219388	1	430	1217566	3	296	correct	1219721	1	430	1217566	foi_05187.png	foi_Pflanze.png	organic	308091	ok
64911	07/13/2021 14:59:18	1	83	1224253	1	433	1223926	1226519	1	434	1226046	1231217	1	436	1230287	3	768	correct	1232017	1	436	1230287	mos_23223.png	mos_Traube.png	organic	308091	ok
64911	07/13/2021 14:59:28	1	84	1235249	1	438	1234526	1237465	1	439	1236646	1241064	1	441	1240886	2	999	correct	1242097	1	441	1240886	maw_22459.png	maw_Schlauchboot.png	inorganic	308091	ok
64911	07/13/2021 14:59:39	1	85	1245396	1	443	1245127	1248111	1	444	1247246	1251194	1	445	1249366	2	449	correct	1251677	1	446	1251486	fab_06286.png	fab_Staubsauger.png	inorganic	308091	ok
64911	07/13/2021 14:59:50	1	86	1256409	1	448	1255726	1258441	1	449	1257846	1262857	1	451	1262086	2	294	correct	1263190	1	451	1262086	mao_19000.png	mao_Kegel.png	inorganic	308091	ok
64911	07/13/2021 15:00:01	1	87	1267288	1	453	1266326	1270087	1	454	1268446	1273819	1	456	1272686	2	464	correct	1274319	1	456	1272686	fax_15310.png	fax_Klebeband.png	inorganic	308091	ok
64911	07/13/2021 15:00:11	1	88	1277868	1	458	1276925	1280367	1	459	1279046	1283649	1	461	1283286	3	593	correct	1284266	1	461	1283286	mot_69770.png	mot_Bison.png	organic	308091	ok
64911	07/13/2021 15:00:22	1	89	1287715	1	463	1287526	1290064	1	464	1289646	1294996	1	466	1293885	2	1212	correct	1296229	1	467	1296006	map_49576.png	map_Globus.png	inorganic	308091	ok
64911	07/13/2021 15:00:32	1	90	1298644	1	468	1298126	1300494	1	469	1300245	1303676	1	470	1302366	3	656	correct	1304359	1	470	1302366	mon_69587.png	mon_Fuchs.png	organic	308091	ok
64911	07/13/2021 15:00:42	1	91	1308708	1	472	1306606	1311340	1	474	1310846	1314856	1	475	1312966	3	343	correct	1315222	1	476	1315085	foj_08937.png	foj_Rose.png	organic	308091	ok
64911	07/13/2021 15:00:54	1	92	1318571	1	477	1317205	1322037	1	479	1321446	1327051	1	481	1325685	2	437	correct	1327518	1	481	1325685	faj_07849.png	faj_Schuh.png	inorganic	308091	ok
64911	07/13/2021 15:01:04	1	93	1330750	1	483	1329926	1332816	1	484	1332045	1336998	1	486	1336286	3	1125	correct	1338148	1	486	1336286	fov_15193.png	fov_Zucchini.png	organic	308091	ok
64911	07/13/2021 15:01:14	1	94	1341197	1	488	1340525	1343396	1	489	1342646	1348044	1	491	1346885	3	329	correct	1348411	1	491	1346885	foa_00426.png	foa_Aubergine.png	organic	308091	ok
64911	07/13/2021 15:01:25	1	95	1351443	1	493	1351126	1354109	1	494	1353246	1357458	1	495	1355365	2	580	correct	1358074	1	496	1357485	mat_23754.png	mat_Helm.png	inorganic	308091	ok
64911	07/13/2021 15:01:34	1	96	1362040	1	498	1361725	1364372	1	499	1363845	1367921	1	500	1365965	2	1589	correct	1369537	1	501	1368086	mal_20552.png	mal_Kugelschreiber.png	inorganic	308091	ok
