ID	DateTime	Run	Delayed_Retrieval_Trial	First_Pulse_Time	FaceRecog_OnsetTime	FaceRecog_OnsetTimeUncertainty	FaceRecog_fMRI_Pulse	FaceRecog_fMRI_PulseTime	Assoc_Retrieval_OnsetTime	Assoc_Retrieval_OnsetTimeUncertainty	Assoc_Retrieval_fMRI_Pulse	Assoc_Retrieval_fMRI_PulseTime	Assoc_Retrieval_Pressed_Button	Assoc_Retrieval_RT	Assoc_Retrieval_Response_Category	Assoc_Retrieval_Accuracy	Assoc_Retrieval_Feedback_OnsetTime	Assoc_Retrieval_Feedback_OnsetTimeUncertainty	Assoc_Retrieval_Feedback_fMRI_Pulse	Assoc_Retrieval_Feedback_fMRI_PulseTime	Retrieval_consc_Rating_OnsetTime	Retrieval_consc_Rating_OnsetTimeUncertainty	Retrieval_consc_Rating_fMRI_Pulse	Retrieval_consc_Rating_fMRI_PulseTime	Retrieval_consc_Rating_Pressed_Button	Retrieval_consc_Rating_RT	Retrieval_consc_Rating_Feedback_OnsetTime	Retrieval_consc_Rating_Feedback_OnsetTimeUncertainty	Retrieval_consc_Rating_Feedback_fMRI_Pulse	Retrieval_consc_Rating_Feedback_fMRI_PulseTime	ForcedChoice_OnsetTime	ForcedChoice_OnsetTimeUncertainty	ForcedChoice_fMRI_Pulse	ForcedChoice_fMRI_PulseTime	ForcedChoice_Pressed_Button	ForcedChoice_RT	ForcedChoice_Response_Category	ForcedChoice_Accuracy	ForcedChoice_Feedback_OnsetTime	ForcedChoice_Feedback_OnsetTimeUncertainty	ForcedChoice_Feedback_fMRI_Pulse	ForcedChoice_Feedback_fMRI_PulseTime	Recognition_consc_Rating_OnsetTime	Recognition_consc_Rating_OnsetTimeUncertainty	Recognition_consc_Rating_fMRI_Pulse	Recognition_consc_Rating_fMRI_PulseTime	Recognition_consc_Rating_Pressed_Button	Recognition_consc_Rating_RT	Recognition_consc_Rating_Feedback_OnsetTime	Recognition_consc_Rating_Feedback_OnsetTimeUncertainty	Recognition_consc_Rating_Feedback_fMRI_Pulse	Recognition_consc_Rating_Feedback_fMRI_PulseTime	Presented_Person	Presented_Target	Presented_Lure	TrialStatus
64911	07/14/2021 15:22:51	1	1	70117	80872	1	6	80718	83771	1	7	82837	2	1730	inorganic	correct	85537	1	8	84956	88370	1	9	87077	2	1327	89719	1	10	89197	92818	1	11	91316	3	1523	inorganic	incorrect	94368	1	12	93437	97600	1	13	95557	2	2008	99632	1	14	97677	mae_01010.png	mae_Taschenrechner.png	mae_Schach.png	ok
64911	07/14/2021 15:23:09	1	2	70117	102432	1	16	101917	104264	1	17	104037	2	1535	organic	incorrect	105830	1	17	104037	108496	1	19	108276	2	734	109263	1	19	108276	112178	1	20	110397	3	2112	organic	incorrect	114311	1	21	112517	116710	1	22	114636	3	664	117410	1	23	116756	foq_16799.png	foq_Pinguin.png	foq_Fenchel.png	ok
64911	07/14/2021 15:23:29	1	3	70117	120159	1	24	118877	123408	1	26	123116	2	2102	inorganic	correct	125557	1	27	125236	127223	1	27	125236	2	1040	128289	1	28	127357	131805	1	30	131596	2	2587	inorganic	incorrect	134421	1	31	133717	136004	1	32	135837	2	428	136453	1	32	135837	fat_12032.png	fat_Einkaufswagen.png	fat_Kleiderbuegel.png	ok
64911	07/14/2021 15:23:51	1	4	70117	139919	1	33	137956	143101	1	35	142197	2	644	inorganic	correct	143768	1	35	142197	148099	1	37	146436	4	496	148633	1	38	148559	152565	1	39	150677	3	1168	inorganic	correct	153764	1	40	152796	156497	1	41	154916	4	271	156796	1	41	154916	mau_49693.png	mau_Wasserventil.png	mau_Leiter.png	ok
64911	07/14/2021 15:24:09	1	5	70117	161811	1	44	161276	163428	1	45	163396	3	1853	inorganic	incorrect	165310	1	45	163396	167659	1	46	165516	2	1979	169675	1	47	167632	171825	1	48	169756	3	1772	inorganic	correct	173641	1	49	171879	176257	1	51	176116	3	1128	177406	1	51	176116	far_00736.png	far_Giesskanne.png	far_Heissluftballon.png	ok
64911	07/14/2021 15:24:32	1	6	70117	179639	1	52	178236	183071	1	54	182477	2	257	organic	incorrect	183354	1	54	182477	188369	1	56	186718	2	1394	189785	1	57	188836	192684	1	58	190956	3	1664	organic	correct	194384	1	59	193076	197983	1	61	197316	4	480	198499	1	61	197316	mog_03090.png	mog_Pilz.png	mog_Fledermaus.png	ok
64911	07/14/2021 15:24:53	1	7	70117	202914	1	63	201556	204697	1	64	203676	3	1042	organic	correct	205763	1	64	203676	209979	1	66	207916	4	857	210862	1	67	210036	214360	1	69	214276	2	791	organic	correct	215177	1	69	214276	219709	1	71	218516	4	325	220075	1	71	218516	mom_59361.png	mom_Loewe.png	mom_Ei.png	ok
64911	07/14/2021 15:25:12	1	8	70117	223757	1	73	222756	226073	1	74	224876	2	621	organic	incorrect	226723	1	74	224876	230455	1	76	229115	2	534	231021	1	76	229115	234137	1	78	233356	3	1946	organic	correct	236120	1	79	235476	238635	1	80	237595	2	723	239385	1	80	237595	mof_02408.png	mof_Spaghetti.png	mof_Hahn.png	ok
64911	07/14/2021 15:25:31	1	9	70117	243401	1	82	241836	246050	1	83	243955	3	1783	inorganic	incorrect	247866	1	84	246075	249632	1	85	248197	2	741	250398	1	86	250316	254780	1	88	254555	3	1868	inorganic	incorrect	256679	1	88	254555	258629	1	89	256676	2	1321	259978	1	90	258796	fai_07494.png	fai_Kommode.png	fai_Foehn.png	ok
64911	07/14/2021 15:25:53	1	10	70117	262411	1	91	260915	265460	1	93	265156	2	1644	inorganic	correct	267126	1	93	265156	270008	1	95	269395	2	2099	272158	1	96	271516	275240	1	97	273636	2	2509	inorganic	correct	277772	1	98	275755	280405	1	100	279996	3	368	280805	1	100	279996	fag_06539.png	fag_Geschenk.png	fag_Portemonnaie.png	ok
64911	07/14/2021 15:26:16	1	11	70117	284453	1	102	284235	287786	1	103	286355	2	601	inorganic	correct	288419	1	103	286355	292317	1	105	290595	3	315	292667	1	105	290595	296366	1	107	294835	2	2849	inorganic	correct	299248	1	109	299075	301847	1	110	301195	2	2184	304063	1	111	303316	maj_01545.png	maj_Computermaus.png	maj_Krawatte.png	ok
64911	07/14/2021 15:26:34	1	12	70117	307012	1	112	305435	309662	1	113	307558	2	261	organic	incorrect	309945	1	114	309675	313377	1	115	311796	2	705	314110	1	116	313915	317109	1	117	316035	2	1827	organic	correct	318975	1	118	318155	321024	1	119	320276	2	380	321458	1	119	320276	mou_01862.png	mou_Kraehe.png	mou_Croissant.png	ok
64911	07/14/2021 15:26:58	1	13	70117	325006	1	121	324515	328422	1	122	326635	2	1756	organic	incorrect	330205	1	123	328755	333653	1	125	332995	2	1456	335136	1	125	332995	338085	1	127	337235	3	2362	organic	correct	340468	1	128	339355	343517	1	129	341475	2	300	343850	1	130	343595	fot_00797.png	fot_Salat.png	fot_Taube.png	ok
64911	07/14/2021 15:27:18	1	14	70117	348682	1	132	347835	351914	1	133	349955	3	2053	organic	correct	353997	1	134	352075	355279	1	135	354195	4	651	355963	1	135	354195	360028	1	137	358435	2	1371	organic	correct	361427	1	138	360555	364426	1	139	362675	4	361	364810	1	139	362675	for_15187.png	for_Seehund.png	for_Mandel.png	ok
64911	07/14/2021 15:27:38	1	15	70117	368742	1	141	366914	370808	1	142	369035	2	263	inorganic	correct	371124	1	142	369035	375639	1	145	375394	2	623	376289	1	145	375394	380571	1	147	379635	3	1757	inorganic	correct	382354	1	148	381755	385103	1	149	383874	3	1489	386619	1	150	385995	mak_00987.png	mak_Socken.png	mak_Rucksack.png	ok
64911	07/14/2021 15:27:55	1	16	70117	388901	1	151	388115	391517	1	152	390234	2	623	organic	incorrect	392167	1	152	390234	394899	1	154	394475	2	571	395499	1	154	394475	398382	1	155	396595	3	1411	organic	correct	399814	1	156	398714	402330	1	157	400835	2	826	403180	1	158	402957	fop_00621.png	fop_Koala.png	fop_Mango.png	ok
64911	07/14/2021 15:28:13	1	17	70117	406246	1	159	405074	408095	1	160	407194	2	2473	inorganic	correct	410594	1	161	409315	411844	1	162	411435	2	1313	413193	1	162	411435	416709	1	164	415674	2	1783	inorganic	incorrect	418541	1	165	417795	420407	1	166	419915	3	1243	421690	1	166	419915	mas_41366.png	mas_Tisch.png	mas_Bueroklammer.png	ok
64911	07/14/2021 15:28:34	1	18	70117	424373	1	168	424154	427522	1	169	426275	2	1258	inorganic	correct	428805	1	170	428394	431137	1	171	430514	0	0	431137	1	172	432634	435686	1	173	434756	3	1736	inorganic	correct	437452	1	174	436874	440517	1	175	438994	4	245	440801	1	175	438994	mai_06530.png	mai_Gewehr.png	mai_Auto.png	ok
64911	07/14/2021 15:28:55	1	19	70117	445432	1	178	445354	447432	1	178	445354	2	1644	inorganic	correct	449098	1	179	447474	450780	1	180	449595	2	598	451414	1	180	449595	456062	1	183	455954	2	1909	inorganic	correct	457995	1	183	455954	460794	1	185	460194	2	224	461044	1	185	460194	mac_59169.png	mac_Dartpfeil.png	mac_Medaille.png	ok
64911	07/14/2021 15:29:14	1	20	70117	465692	1	187	464434	468874	1	189	468674	2	375	organic	incorrect	469291	1	189	468674	472856	1	190	470794	2	549	473439	1	191	472915	477438	1	193	477154	3	2707	organic	incorrect	480171	1	194	479274	481353	1	194	479274	2	285	481670	1	195	481394	moe_02012.png	moe_Waschbaer.png	moe_Pommes.png	ok
64911	07/14/2021 15:29:34	1	21	70117	484819	1	196	483514	487485	1	197	485634	2	542	organic	incorrect	488051	1	198	487754	491050	1	199	489874	2	646	491733	1	199	489874	494782	1	201	494114	3	2525	organic	incorrect	497331	1	202	496234	499981	1	203	498354	2	238	500247	1	203	498354	fou_17118.png	fou_Feige.png	fou_Schmetterling.png	ok
64911	07/14/2021 15:29:53	1	22	70117	504746	1	206	504713	506612	1	206	504713	2	490	organic	incorrect	507128	1	207	506834	511310	1	209	511074	2	624	511960	1	209	511074	515475	1	211	515314	2	2050	organic	correct	517575	1	212	517434	520024	1	213	519554	2	244	520290	1	213	519554	moh_06446.png	moh_Birne.png	moh_Muecke.png	ok
64911	07/14/2021 15:30:15	1	23	70117	524089	1	215	523794	527005	1	216	525914	2	231	inorganic	correct	527271	1	216	525914	532103	1	218	530154	2	402	532536	1	219	532274	536751	1	221	536513	2	2462	inorganic	correct	539234	1	222	538634	541233	1	223	540754	4	555	541816	1	223	540754	faw_14215.png	faw_Hufeisen.png	faw_Kuechenmaschine.png	ok
64911	07/14/2021 15:30:35	1	24	70117	545598	1	225	544993	548181	1	226	547114	2	2127	organic	incorrect	550330	1	227	549234	553462	1	228	551353	2	732	554229	1	229	553473	557461	1	230	555594	2	2098	organic	incorrect	559594	1	231	557714	561193	1	232	559833	4	657	561876	1	232	559833	moj_11821.png	moj_Blatt.png	moj_Walnuss.png	ok
64911	07/14/2021 15:30:57	1	25	70117	565992	1	234	564074	569574	1	236	568313	2	300	inorganic	correct	569907	1	236	568313	574855	1	239	574673	2	615	575505	1	239	574673	578287	1	240	576793	3	2455	inorganic	incorrect	580770	1	241	578914	583536	1	243	583153	2	458	584019	1	243	583153	fap_16329.png	fap_Knopf.png	fap_Kissen.png	ok
64911	07/14/2021 15:31:17	1	26	70117	587751	1	245	587394	590683	1	246	589513	2	1901	inorganic	correct	592616	1	247	591633	594515	1	248	593753	2	289	594832	1	248	593753	599347	1	250	597993	3	1342	inorganic	correct	600713	1	251	600113	603379	1	252	602234	2	257	603662	1	252	602234	fal_07906.png	fal_Buegeleisen.png	fal_Korb.png	ok
64911	07/14/2021 15:31:37	1	27	70117	607927	1	254	606473	610976	1	256	610714	2	609	organic	incorrect	611609	1	256	610714	615225	1	258	614953	2	1035	616308	1	258	614953	620123	1	260	619193	3	2804	organic	incorrect	622956	1	261	621313	624588	1	262	623433	2	296	624922	1	262	623433	foe_08236.png	foe_Tannenzapfen.png	foe_Adler.png	ok
64911	07/14/2021 15:31:57	1	28	70117	628137	1	264	627673	630803	1	265	629793	2	276	organic	incorrect	631103	1	265	629793	634668	1	267	634033	2	584	635285	1	267	634033	638217	1	268	636153	3	2358	organic	correct	640600	1	270	640393	643082	1	271	642513	3	852	643965	1	271	642513	mol_07679.png	mol_Schimpanse.png	mol_Pizza.png	ok
64911	07/14/2021 15:32:17	1	29	70117	647997	1	273	646753	649863	1	274	648873	2	794	organic	incorrect	650680	1	274	648873	654162	1	276	653113	0	0	654162	1	277	655233	658893	1	278	657352	3	1977	organic	correct	660893	1	279	659473	663325	1	280	661593	2	284	663642	1	280	661593	mob_00760.png	mob_Igel.png	mob_Kiwi.png	ok
64911	07/14/2021 15:32:37	1	30	70117	668507	1	283	667953	671739	1	284	670073	2	1803	organic	incorrect	673572	1	285	672193	676238	1	286	674313	2	599	676871	1	287	676433	680053	1	288	678553	2	2215	organic	correct	682302	1	289	680672	684568	1	290	682793	4	207	684801	1	290	682793	foc_02157.png	foc_Eule.png	foc_Brombeere.png	ok
64911	07/14/2021 15:32:58	1	31	70117	688234	1	292	687033	691449	1	294	691273	2	912	inorganic	correct	692399	1	294	691273	695531	1	295	693393	2	907	696464	1	296	695513	700513	1	298	699753	2	2036	inorganic	correct	702579	1	299	701873	705794	1	300	703992	2	588	706411	1	301	706112	fan_17286.png	fan_Klavier.png	fan_Lampe.png	ok
64911	07/14/2021 15:33:18	1	32	70117	709493	1	302	708233	712209	1	303	710353	2	769	inorganic	correct	713009	1	304	712472	715891	1	305	714593	2	790	716724	1	305	714593	720556	1	307	718832	3	2215	inorganic	incorrect	722805	1	308	720952	724738	1	309	723073	2	255	725021	1	309	723073	fac_02146.png	fac_Haarbuerste.png	fac_Ohrring.png	ok
64911	07/14/2021 15:33:38	1	33	70117	729536	1	312	729432	732335	1	313	731553	2	866	inorganic	correct	733235	1	313	731553	736900	1	315	735792	2	549	737484	1	315	735792	740683	1	317	740033	2	1780	inorganic	correct	742499	1	318	742152	745797	1	319	744272	3	249	746081	1	319	744272	maw_04767.png	maw_Pingpongschlaeger.png	maw_Schlauchboot.png	ok
64911	07/14/2021 15:33:57	1	34	70117	749163	1	321	748513	750996	1	322	750632	0	0	organic	miss	750996	1	323	752752	755794	1	324	754872	4	1410	757227	1	325	756992	759343	1	326	759112	2	567	organic	correct	759943	1	326	759112	763858	1	328	763353	4	846	764758	1	328	763353	fok_09378.png	fok_Palme.png	fok_Kaenguruh.png	ok
64911	07/14/2021 15:34:19	1	35	70117	767923	1	330	767592	770489	1	331	769712	2	1220	organic	incorrect	771739	1	331	769712	775704	1	333	773952	2	958	776687	1	334	776072	780686	1	336	780312	2	2430	organic	correct	783152	1	337	782432	785467	1	338	784552	2	1397	786900	1	339	786672	foi_03389.png	foi_Apfelkuchen.png	foi_Pflanze.png	ok
64911	07/14/2021 15:34:40	1	36	70117	790349	1	340	788792	793381	1	342	793032	2	955	organic	incorrect	794364	1	342	793032	798146	1	344	797272	2	637	798813	1	344	797272	803245	1	346	801512	3	2457	organic	correct	805727	1	347	803632	807410	1	348	805752	2	356	807793	1	348	805752	mos_20953.png	mos_Eintagsfliege.png	mos_Traube.png	ok
64911	07/14/2021 15:34:59	1	37	70117	811159	1	350	809992	813225	1	351	812112	2	1172	inorganic	correct	814441	1	352	814232	816940	1	353	816352	2	681	817657	1	353	816352	821355	1	355	820592	2	2259	inorganic	incorrect	823638	1	356	822712	826087	1	357	824832	2	497	826620	1	357	824832	fab_06018.png	fab_Kinderwagen.png	fab_Staubsauger.png	ok
64911	07/14/2021 15:35:20	1	38	70117	830386	1	359	829072	832302	1	360	831192	2	1231	organic	incorrect	833568	1	361	833311	836000	1	362	835431	2	665	836700	1	362	835431	841049	1	364	839672	3	2000	organic	incorrect	843081	1	365	841791	845714	1	366	843912	2	355	846097	1	367	846032	mot_69374.png	mot_Hotdog.png	mot_Bison.png	ok
64911	07/14/2021 15:35:41	1	39	70117	850912	1	369	850271	853678	1	370	852392	2	675	inorganic	correct	854377	1	370	852392	858243	1	372	856631	2	553	858826	1	373	858751	863141	1	375	862992	3	1971	inorganic	correct	865157	1	376	865111	868706	1	377	867231	0	0	868706	1	378	869352	mao_11634.png	mao_Stempel.png	mao_Kegel.png	ok
64911	07/14/2021 15:36:03	1	40	70117	872505	1	379	871472	876020	1	381	875711	2	1801	inorganic	correct	877853	1	381	875711	880519	1	383	879951	2	599	881152	1	383	879951	884667	1	385	884191	3	2742	inorganic	correct	887433	1	386	886312	888949	1	387	888431	2	416	889399	1	387	888431	fax_14883.png	fax_Fahrrad.png	fax_Klebeband.png	ok
64911	07/14/2021 15:36:24	1	41	70117	893697	1	389	892672	896580	1	390	894791	2	669	inorganic	correct	897280	1	391	896911	901095	1	392	899031	2	668	901795	1	393	901152	905727	1	395	905391	2	1951	inorganic	correct	907709	1	396	907511	910375	1	397	909632	2	517	910942	1	397	909632	map_41499.png	map_Pfeife.png	map_Globus.png	ok
64911	07/14/2021 15:36:44	1	42	70117	915107	1	399	913871	916806	1	400	915991	3	1745	inorganic	incorrect	918589	1	401	918111	922138	1	402	920231	2	1976	924137	1	403	922351	926236	1	404	924472	0	0	inorganic	miss	926236	1	406	928711	930502	1	406	928711	2	1533	932068	1	407	930831	faj_07783.png	faj_Parfuem.png	faj_Schuh.png	ok
64911	07/14/2021 15:37:07	1	43	70117	935500	1	409	935071	938899	1	410	937191	2	1142	organic	incorrect	940065	1	411	939311	943231	1	412	941431	2	734	943997	1	413	943551	946930	1	414	945671	2	2518	organic	incorrect	949479	1	415	947791	952361	1	417	952031	2	285	952678	1	417	952031	foj_08220.png	foj_Waffel.png	foj_Rose.png	ok
64911	07/14/2021 15:37:26	1	44	70117	957593	1	419	956271	959925	1	420	958391	2	653	organic	incorrect	960625	1	421	960511	963541	1	422	962631	2	593	964174	1	422	962631	968589	1	424	966871	3	2196	organic	incorrect	970821	1	425	968991	972488	1	426	971111	2	279	972804	1	426	971111	mon_65798.png	mon_Kartoffel.png	mon_Fuchs.png	ok
64911	07/14/2021 15:37:45	1	45	70117	976836	1	428	975351	978902	1	429	977471	2	679	organic	incorrect	979618	1	429	977471	982534	1	431	981711	2	534	983101	1	431	981711	987566	1	433	985951	2	1347	organic	correct	988949	1	434	988070	991364	1	435	990191	2	601	991998	1	435	990191	foa_00207.png	foa_Marienkaefer.png	foa_Aubergine.png	ok
64911	07/14/2021 15:38:06	1	46	70117	995580	1	437	994430	999129	1	439	998671	2	339	inorganic	correct	999495	1	439	998671	1004243	1	441	1002910	2	747	1005027	1	441	1002910	1007709	1	443	1007151	2	2238	inorganic	correct	1009992	1	444	1009270	1011958	1	445	1011390	2	880	1012891	1	445	1011390	mal_04470.png	mal_Drucker.png	mal_Kugelschreiber.png	ok
64911	07/14/2021 15:38:28	1	47	70117	1017006	1	447	1015631	1020371	1	449	1019870	2	271	organic	incorrect	1020671	1	449	1019870	1024253	1	451	1024111	2	486	1024770	1	451	1024111	1028935	1	453	1028350	3	2269	organic	correct	1031234	1	454	1030471	1033634	1	455	1032590	2	943	1034600	1	455	1032590	fov_15046.png	fov_Fisch.png	fov_Zucchini.png	ok
64911	07/14/2021 15:38:49	1	48	70117	1038698	1	457	1036830	1041114	1	459	1041070	2	545	inorganic	correct	1041681	1	459	1041070	1045579	1	461	1045311	2	485	1046096	1	461	1045311	1049561	1	462	1047431	3	2380	inorganic	incorrect	1051977	1	464	1051670	1054843	1	465	1053791	2	269	1055143	1	465	1053791	mat_23275.png	mat_Feuerzeug.png	mat_Helm.png	ok
64911	07/14/2021 15:39:07	1	49	70117	1059675	1	467	1058030	1061624	1	468	1060150	2	811	inorganic	correct	1062474	1	469	1062271	1065073	1	470	1064390	2	1751	1066856	1	471	1066510	1068888	1	472	1068630	3	1421	inorganic	correct	1070338	1	472	1068630	1074370	1	474	1072870	2	2289	1076686	1	475	1074990	mae_36426.png	mae_Schach.png	mae_Taschenrechner.png	ok
64911	07/14/2021 15:39:26	1	50	70117	1078352	1	476	1077110	1081334	1	477	1079230	2	1913	organic	incorrect	1083283	1	478	1081350	1084733	1	479	1083470	2	1013	1085783	1	480	1085591	1089181	1	481	1087710	3	2502	organic	incorrect	1091714	1	482	1089830	1093197	1	483	1091950	2	290	1093513	1	483	1091950	foq_17341.png	foq_Fenchel.png	foq_Pinguin.png	ok
64911	07/14/2021 15:39:46	1	51	70117	1096912	1	485	1096190	1100044	1	486	1098310	2	993	inorganic	correct	1101061	1	487	1100430	1103393	1	488	1102550	2	716	1104143	1	488	1102550	1108375	1	490	1106790	3	1188	inorganic	correct	1109608	1	491	1108910	1112140	1	492	1111030	3	247	1112424	1	492	1111030	fat_14140.png	fat_Kleiderbuegel.png	fat_Einkaufswagen.png	ok
64911	07/14/2021 15:40:05	1	52	70117	1116755	1	494	1115270	1118438	1	495	1117390	2	1224	inorganic	correct	1119688	1	496	1119510	1122287	1	497	1121630	2	639	1122953	1	497	1121630	1127269	1	499	1125870	3	1175	inorganic	correct	1128468	1	500	1127990	1131934	1	501	1130110	2	809	1132767	1	502	1132229	mau_58144.png	mau_Leiter.png	mau_Wasserventil.png	ok
64911	07/14/2021 15:40:25	1	53	70117	1136249	1	503	1134350	1138531	1	504	1136470	2	682	organic	incorrect	1139248	1	505	1138590	1143696	1	507	1142830	2	288	1144013	1	507	1142830	1148228	1	509	1147070	0	0	organic	miss	1148228	1	510	1149189	1152127	1	511	1151310	2	1740	1153893	1	512	1153430	mog_03277.png	mog_Fledermaus.png	mog_Pilz.png	ok
64911	07/14/2021 15:40:42	1	54	70117	1156125	1	513	1155549	1158558	1	514	1157669	2	1459	organic	incorrect	1160057	1	515	1159790	1162173	1	516	1161910	2	658	1162857	1	516	1161910	1165722	1	517	1164029	3	1971	organic	correct	1167722	1	518	1166150	1169521	1	519	1168270	3	1816	1171370	1	520	1170389	mom_59641.png	mom_Ei.png	mom_Loewe.png	ok
64911	07/14/2021 15:41:01	1	55	70117	1173503	1	521	1172509	1176769	1	522	1174630	2	422	inorganic	correct	1177218	1	523	1176750	1180434	1	524	1178869	4	256	1180717	1	524	1178869	1184416	1	526	1183110	3	542	inorganic	correct	1184982	1	526	1183110	1188098	1	528	1187349	4	307	1188431	1	528	1187349	far_06518.png	far_Heissluftballon.png	far_Giesskanne.png	ok
64911	07/14/2021 15:41:21	1	56	70117	1192280	1	530	1191590	1195279	1	531	1193709	2	253	organic	incorrect	1195562	1	531	1193709	1199394	1	533	1197949	2	2397	1201827	1	534	1200070	1204093	1	535	1202189	2	2055	organic	correct	1206175	1	536	1204309	1207991	1	537	1206430	2	282	1208325	1	537	1206430	mof_06901.png	mof_Hahn.png	mof_Spaghetti.png	ok
64911	07/14/2021 15:41:40	1	57	70117	1211640	1	539	1210669	1213323	1	540	1212789	3	1685	inorganic	incorrect	1215039	1	541	1214910	1218254	1	542	1217029	2	1702	1219987	1	543	1219149	1222703	1	544	1221269	2	1781	inorganic	correct	1224519	1	545	1223390	1227235	1	546	1225509	2	219	1227485	1	546	1225509	fai_07637.png	fai_Foehn.png	fai_Kommode.png	ok
64911	07/14/2021 15:42:01	1	58	70117	1231000	1	548	1229749	1232616	1	549	1231869	2	1587	inorganic	correct	1234232	1	550	1233989	1236782	1	551	1236109	2	616	1237431	1	551	1236109	1241680	1	553	1240349	3	2240	inorganic	incorrect	1243946	1	554	1242469	1247195	1	556	1246709	2	314	1247545	1	556	1246709	fag_06551.png	fag_Portemonnaie.png	fag_Geschenk.png	ok
64911	07/14/2021 15:42:19	1	59	70117	1252326	1	558	1250949	1254576	1	559	1253069	3	2092	inorganic	incorrect	1256708	1	560	1255189	1258657	1	561	1257309	2	262	1258974	1	561	1257309	1262073	1	563	1261549	2	1390	inorganic	correct	1263489	1	563	1261549	1266871	1	565	1265789	2	633	1267538	1	565	1265789	maj_01546.png	maj_Krawatte.png	maj_Computermaus.png	ok
64911	07/14/2021 15:42:40	1	60	70117	1270354	1	567	1270028	1272103	1	567	1270028	2	691	organic	incorrect	1272819	1	568	1272149	1276735	1	570	1276389	2	637	1277401	1	570	1276389	1282000	1	572	1280629	3	1488	organic	correct	1283516	1	573	1282749	1287181	1	575	1286989	2	354	1287564	1	575	1286989	mou_06524.png	mou_Croissant.png	mou_Kraehe.png	ok
64911	07/14/2021 15:43:01	1	61	70117	1291063	1	576	1289109	1294245	1	578	1293348	2	591	inorganic	correct	1294862	1	578	1293348	1298377	1	580	1297589	2	836	1299244	1	580	1297589	1302493	1	582	1301828	3	1255	inorganic	correct	1303776	1	582	1301828	1308107	1	584	1306069	2	55	1308207	1	584	1306069	mak_03979.png	mak_Rucksack.png	mak_Socken.png	ok
64911	07/14/2021 15:43:21	1	62	70117	1311890	1	586	1310308	1314872	1	588	1314549	2	214	organic	incorrect	1315122	1	588	1314549	1319454	1	590	1318788	2	546	1320037	1	590	1318788	1323519	1	592	1323029	3	2129	organic	correct	1325685	1	593	1325148	1327668	1	594	1327268	0	0	1327668	1	595	1329389	fop_07937.png	fop_Mango.png	fop_Koala.png	ok
64911	07/14/2021 15:43:42	1	63	70117	1331733	1	596	1331508	1335132	1	597	1333628	2	284	organic	incorrect	1335448	1	597	1333628	1339380	1	599	1337869	2	542	1339947	1	599	1337869	1343629	1	601	1342108	2	1617	organic	correct	1345278	1	602	1344229	1348044	1	603	1346348	2	307	1348377	1	603	1346348	for_15880.png	for_Mandel.png	for_Seehund.png	ok
64911	07/14/2021 15:44:00	1	64	70117	1352909	1	606	1352709	1355142	1	607	1354828	2	2206	organic	incorrect	1357391	1	608	1356948	1358540	1	608	1356948	3	1124	1359690	1	609	1359068	1363022	1	610	1361189	3	1045	organic	correct	1364089	1	611	1363308	1367754	1	613	1367548	4	968	1368754	1	613	1367548	fot_06092.png	fot_Taube.png	fot_Salat.png	ok
64911	07/14/2021 15:44:22	1	65	70117	1371103	1	614	1369668	1373919	1	615	1371788	3	296	organic	correct	1374252	1	616	1373908	1379133	1	618	1378148	4	289	1379450	1	618	1378148	1384015	1	620	1382388	2	533	organic	correct	1384582	1	621	1384508	1388297	1	622	1386628	4	2003	1390330	1	623	1388748	moe_23630.png	moe_Pommes.png	moe_Waschbaer.png	ok
64911	07/14/2021 15:44:45	1	66	70117	1393029	1	625	1392988	1396244	1	626	1395108	2	2184	inorganic	correct	1398460	1	627	1397228	1401543	1	629	1401468	2	667	1402242	1	629	1401468	1406624	1	631	1405708	3	2150	inorganic	correct	1408807	1	632	1407828	1411739	1	633	1409948	2	252	1412022	1	633	1409948	mac_59752.png	mac_Medaille.png	mac_Dartpfeil.png	ok
64911	07/14/2021 15:45:04	1	67	70117	1415871	1	635	1414188	1418920	1	637	1418428	2	1724	inorganic	correct	1420669	1	638	1420548	1422252	1	638	1420548	2	605	1422885	1	639	1422667	1425968	1	640	1424788	2	1347	inorganic	incorrect	1427350	1	641	1426908	1430116	1	642	1429028	2	351	1430499	1	642	1429028	mas_41937.png	mas_Bueroklammer.png	mas_Tisch.png	ok
64911	07/14/2021 15:45:24	1	68	70117	1434631	1	644	1433268	1437930	1	646	1437508	2	603	inorganic	correct	1438563	1	646	1437508	1442845	1	648	1441748	2	586	1443462	1	648	1441748	1447027	1	650	1445987	3	2079	inorganic	correct	1449126	1	651	1448107	1451326	1	652	1450228	2	668	1452025	1	652	1450228	mai_23761.png	mai_Auto.png	mai_Gewehr.png	ok
64911	07/14/2021 15:45:45	1	69	70117	1455024	1	654	1454467	1458340	1	655	1456588	2	1471	organic	incorrect	1459840	1	656	1458708	1463638	1	658	1462947	2	802	1464471	1	658	1462947	1467370	1	660	1467188	2	1593	organic	correct	1468986	1	660	1467188	1471452	1	662	1471427	2	819	1472302	1	662	1471427	fou_18966.png	fou_Schmetterling.png	fou_Feige.png	ok
64911	07/14/2021 15:46:05	1	70	70117	1475684	1	663	1473548	1478233	1	665	1477787	2	1900	organic	incorrect	1480166	1	666	1479907	1482115	1	667	1482028	0	0	1482115	1	668	1484147	1486314	1	669	1486267	0	0	organic	miss	1486314	1	670	1488388	1490962	1	671	1490508	2	391	1491379	1	671	1490508	moj_11860.png	moj_Walnuss.png	moj_Blatt.png	ok
64911	07/14/2021 15:46:25	1	71	70117	1496261	1	673	1494747	1497927	1	674	1496868	3	2395	organic	correct	1500359	1	675	1498988	1503008	1	676	1501107	2	936	1503991	1	677	1503227	1506907	1	678	1505348	3	1921	organic	correct	1508856	1	679	1507467	1510839	1	680	1509587	2	2455	1513321	1	681	1511707	moh_07125.png	moh_Muecke.png	moh_Birne.png	ok
64911	07/14/2021 15:46:47	1	72	70117	1516154	1	683	1515947	1519319	1	684	1518067	2	559	inorganic	correct	1519903	1	684	1518067	1524418	1	686	1522307	2	633	1525084	1	687	1524427	1529133	1	689	1528667	2	2385	inorganic	correct	1531549	1	690	1530787	1533315	1	691	1532907	2	293	1533631	1	691	1532907	faw_14685.png	faw_Kuechenmaschine.png	faw_Hufeisen.png	ok
64911	07/14/2021 15:47:06	1	73	70117	1537797	1	693	1537148	1540029	1	694	1539267	2	937	organic	incorrect	1540995	1	694	1539267	1545111	1	696	1543507	2	886	1546027	1	697	1545627	1548926	1	698	1547747	3	1800	organic	incorrect	1550759	1	699	1549867	1553141	1	700	1551987	2	1410	1554591	1	701	1554107	foe_08514.png	foe_Adler.png	foe_Tannenzapfen.png	ok
64911	07/14/2021 15:47:26	1	74	70117	1556857	1	702	1556227	1558673	1	703	1558347	0	0	inorganic	miss	1558673	1	704	1560466	1562788	1	705	1562587	2	2017	1564837	1	706	1564707	1567803	1	707	1566827	2	2499	inorganic	incorrect	1570336	1	708	1568947	1573135	1	709	1571067	2	330	1573501	1	710	1573187	fal_07977.png	fal_Korb.png	fal_Buegeleisen.png	ok
64911	07/14/2021 15:47:46	1	75	70117	1577100	1	711	1575307	1580582	1	713	1579547	2	409	inorganic	correct	1581015	1	713	1579547	1584897	1	715	1583786	2	569	1585497	1	715	1583786	1588796	1	717	1588027	3	1807	inorganic	incorrect	1590629	1	718	1590147	1592561	1	719	1592266	2	914	1593511	1	719	1592266	fap_17119.png	fap_Kissen.png	fap_Knopf.png	ok
64911	07/14/2021 15:48:06	1	76	70117	1596777	1	721	1596507	1599792	1	722	1598626	2	270	organic	incorrect	1600092	1	722	1598626	1603274	1	724	1602867	3	1129	1604457	1	724	1602867	1606940	1	725	1604987	3	908	organic	correct	1607873	1	726	1607106	1611572	1	728	1611347	4	201	1611805	1	728	1611347	mol_11363.png	mol_Pizza.png	mol_Schimpanse.png	ok
64911	07/14/2021 15:48:27	1	77	70117	1616886	1	730	1615586	1619186	1	731	1617707	2	1017	organic	incorrect	1620235	1	732	1619827	1623134	1	733	1621946	2	637	1623801	1	733	1621946	1627999	1	735	1626187	2	2344	organic	incorrect	1630365	1	736	1628307	1633181	1	738	1632546	2	840	1634047	1	738	1632546	mob_22833.png	mob_Kiwi.png	mob_Igel.png	ok
64911	07/14/2021 15:48:48	1	78	70117	1638263	1	740	1636786	1640878	1	741	1638906	2	912	inorganic	correct	1641828	1	742	1641026	1645210	1	743	1643147	2	703	1645943	1	744	1645266	1650508	1	746	1649507	2	2402	inorganic	incorrect	1652958	1	747	1651627	1655540	1	748	1653746	2	290	1655857	1	748	1653746	fac_02970.png	fac_Ohrring.png	fac_Haarbuerste.png	ok
64911	07/14/2021 15:49:06	1	79	70117	1659255	1	750	1657987	1661471	1	751	1660106	2	548	inorganic	correct	1662055	1	751	1660106	1665187	1	753	1664346	2	1220	1666436	1	753	1664346	1668852	1	755	1668586	3	1147	inorganic	correct	1670035	1	755	1668586	1672918	1	757	1672826	2	2118	1675067	1	758	1674946	fan_18894.png	fan_Lampe.png	fan_Klavier.png	ok
64911	07/14/2021 15:49:26	1	80	70117	1677266	1	759	1677066	1679082	1	759	1677066	2	882	organic	incorrect	1679998	1	760	1679186	1683031	1	761	1681306	2	686	1683747	1	762	1683426	1687429	1	763	1685546	3	2042	organic	incorrect	1689495	1	764	1687666	1692011	1	766	1691906	2	291	1692328	1	766	1691906	foc_02664.png	foc_Brombeere.png	foc_Eule.png	ok
64911	07/14/2021 15:49:48	1	81	70117	1696993	1	768	1696146	1700492	1	770	1700386	2	829	organic	incorrect	1701375	1	770	1700386	1705023	1	772	1704626	2	1066	1706123	1	772	1704626	1709922	1	774	1708866	3	2384	organic	correct	1712338	1	775	1710986	1715070	1	776	1713106	2	454	1715553	1	777	1715226	foi_05187.png	foi_Pflanze.png	foi_Apfelkuchen.png	ok
64911	07/14/2021 15:50:09	1	82	70117	1719019	1	778	1717346	1721701	1	780	1721585	2	575	organic	incorrect	1722301	1	780	1721585	1726333	1	782	1725826	2	374	1726733	1	782	1725826	1731231	1	784	1730066	3	2088	organic	correct	1733347	1	785	1732186	1735346	1	786	1734306	0	0	1735346	1	787	1736425	mos_23223.png	mos_Traube.png	mos_Eintagsfliege.png	ok
64911	07/14/2021 15:50:30	1	83	70117	1739728	1	788	1738546	1743210	1	790	1742786	2	570	inorganic	correct	1743810	1	790	1742786	1747409	1	792	1747026	2	593	1748025	1	792	1747026	1751224	1	793	1749146	2	1514	inorganic	correct	1752791	1	794	1751266	1756573	1	796	1755506	2	519	1757122	1	796	1755506	maw_22459.png	maw_Schlauchboot.png	maw_Pingpongschlaeger.png	ok
64911	07/14/2021 15:50:50	1	84	70117	1761438	1	798	1759745	1764753	1	800	1763986	2	2138	organic	incorrect	1766919	1	801	1766106	1768801	6	802	1768225	2	599	1769435	1	802	1768225	1773750	1	804	1772466	3	1396	organic	correct	1775166	1	805	1774585	1777815	1	806	1776705	3	426	1778265	1	806	1776705	fok_09860.png	fok_Kaenguruh.png	fok_Palme.png	ok
64911	07/14/2021 15:51:12	1	85	70117	1781231	1	808	1780946	1783797	1	809	1783065	2	747	inorganic	correct	1784580	1	809	1783065	1788645	1	811	1787306	2	697	1789378	1	811	1787306	1793677	1	813	1791545	3	2953	inorganic	incorrect	1796659	1	815	1795786	1798308	1	816	1797905	2	547	1798908	1	816	1797905	fax_15310.png	fax_Klebeband.png	fax_Fahrrad.png	ok
64911	07/14/2021 15:51:33	1	86	70117	1803390	1	818	1802145	1805856	1	819	1804266	2	788	organic	incorrect	1806672	1	820	1806385	1809538	1	821	1808505	2	559	1810121	1	821	1808505	1813987	1	823	1812745	2	2816	organic	incorrect	1816836	1	824	1814865	1818818	1	825	1816985	2	721	1819568	1	826	1819106	mot_69770.png	mot_Bison.png	mot_Hotdog.png	ok
64911	07/14/2021 15:51:53	1	87	70117	1823600	1	828	1823345	1825499	1	829	1825465	2	724	inorganic	correct	1826249	1	829	1825465	1829498	1	830	1827586	2	543	1830064	1	831	1829705	1834630	1	833	1833945	2	1555	inorganic	correct	1836212	1	834	1836065	1839445	1	835	1838185	2	372	1839844	1	835	1838185	fab_06286.png	fab_Staubsauger.png	fab_Kinderwagen.png	ok
64911	07/14/2021 15:52:13	1	88	70117	1844110	1	837	1842425	1847325	1	839	1846665	2	854	inorganic	correct	1848225	1	839	1846665	1851241	1	841	1850905	2	464	1851757	1	841	1850905	1855939	1	843	1855145	3	1051	inorganic	correct	1857022	1	843	1855145	1859738	1	845	1859385	2	356	1860121	1	845	1859385	mao_19000.png	mao_Kegel.png	mao_Stempel.png	ok
64911	07/14/2021 15:52:33	1	89	70117	1864120	1	847	1863625	1866685	1	848	1865745	0	0	inorganic	miss	1866685	1	849	1867865	1870917	1	850	1869985	2	583	1871534	1	850	1869985	1874566	1	851	1872105	3	1616	inorganic	incorrect	1876215	1	851	1872105	1880147	1	853	1878465	2	1947	1882130	1	854	1880585	map_49576.png	map_Globus.png	map_Pfeife.png	ok
64911	07/14/2021 15:52:53	1	90	70117	1883596	1	855	1882704	1886495	1	856	1884825	2	743	organic	incorrect	1887262	1	857	1886945	1890611	1	858	1889064	2	787	1891427	1	859	1891184	1895576	1	861	1895425	3	2064	organic	correct	1897692	1	862	1897544	1899907	1	863	1899665	0	0	1899907	1	864	1901785	mon_69587.png	mon_Fuchs.png	mon_Kartoffel.png	ok
64911	07/14/2021 15:53:15	1	91	70117	1904106	1	865	1903905	1906822	1	866	1906024	2	615	organic	incorrect	1907472	1	866	1906024	1912153	1	868	1910265	2	682	1912870	1	869	1912384	1916319	1	870	1914504	3	2935	organic	incorrect	1919284	1	872	1918745	1921683	1	873	1920864	2	310	1922017	1	873	1920864	foj_08937.png	foj_Rose.png	foj_Waffel.png	ok
64911	07/14/2021 15:53:35	1	92	70117	1925699	1	875	1925105	1927715	1	876	1927225	2	316	inorganic	correct	1928065	1	876	1927225	1933030	1	878	1931465	2	1457	1934512	1	879	1933585	1938111	1	881	1937824	2	2447	inorganic	incorrect	1940594	1	882	1939945	1942510	1	883	1942065	2	373	1942910	1	883	1942065	faj_07849.png	faj_Schuh.png	faj_Parfuem.png	ok
64911	07/14/2021 15:53:57	1	93	70117	1946358	1	885	1946304	1949257	1	886	1948425	2	637	organic	incorrect	1949941	1	886	1948425	1954139	1	888	1952664	2	744	1954906	1	889	1954784	1958354	1	890	1956905	2	2876	organic	incorrect	1961253	1	892	1961144	1963053	1	892	1961144	2	716	1963803	1	893	1963264	fov_15193.png	fov_Zucchini.png	fov_Fisch.png	ok
64911	07/14/2021 15:54:16	1	94	70117	1967785	1	895	1967504	1969451	1	895	1967504	3	1210	organic	correct	1970684	1	896	1969624	1973849	1	897	1971745	4	548	1974432	1	898	1973864	1979081	1	900	1978104	3	615	organic	correct	1979731	1	900	1978104	1983279	1	902	1982344	4	812	1984129	1	902	1982344	foa_00426.png	foa_Aubergine.png	foa_Marienkaefer.png	ok
64911	07/14/2021 15:54:36	1	95	70117	1986961	1	904	1986584	1989544	1	905	1988704	2	1284	inorganic	correct	1990860	1	906	1990824	1993742	1	907	1992944	2	670	1994442	1	907	1992944	1997808	1	909	1997184	3	2282	inorganic	incorrect	2000140	1	910	1999304	2003156	1	911	2001424	2	603	2003789	1	912	2003544	mat_23754.png	mat_Helm.png	mat_Feuerzeug.png	ok
64911	07/14/2021 15:54:59	1	96	70117	2007171	1	913	2005664	2010587	1	915	2009904	2	763	inorganic	correct	2011386	1	915	2009904	2015119	1	917	2014144	2	603	2015752	1	917	2014144	2019650	1	919	2018384	2	2337	inorganic	correct	2022016	1	920	2020504	2025049	1	922	2024744	2	230	2025315	1	922	2024744	mal_20552.png	mal_Kugelschreiber.png	mal_Drucker.png	ok
