ID	DateTime	Run	Retrieval_Trial	FaceRecog_OnsetTime	FaceRecog_OnsetTimeUncertainty	FaceRecog_fMRI_Pulse	FaceRecog_fMRI_PulseTime	Assoc_Retrieval_OnsetTime	Assoc_Retrieval_OnsetTimeUncertainty	Assoc_Retrieval_fMRI_Pulse	Assoc_Retrieval_fMRI_PulseTime	Assoc_Retrieval_Pressed_Button	Assoc_Retrieval_RT	Assoc_Retrieval_Response_Category	Assoc_Retrieval_Accuracy	Assoc_Retrieval_Feedback_OnsetTime	Assoc_Retrieval_Feedback_OnsetTimeUncertainty	Assoc_Retrieval_Feedback_fMRI_Pulse	Assoc_Retrieval_Feedback_fMRI_PulseTime	Retrieval_consc_Rating_OnsetTime	Retrieval_consc_Rating_OnsetTimeUncertainty	Retrieval_consc_Rating_fMRI_Pulse	Retrieval_consc_Rating_fMRI_PulseTime	Retrieval_consc_Rating_Pressed_Button	Retrieval_consc_Rating_RT	Retrieval_consc_Rating_Feedback_OnsetTime	Retrieval_consc_Rating_Feedback_OnsetTimeUncertainty	Retrieval_consc_Rating_Feedback_fMRI_Pulse	Retrieval_consc_Rating_Feedback_fMRI_PulseTime	Presented_Person	Presented_Target	Presented_Lure	num_pulse	fifth_pulse_time	TrialStatus
65037	08/03/2021 15:05:17	1	1	1623684	1	524	1623422	1626783	1	525	1626122	3	662	organic	correct	1627466	1	525	1626122	1630465	1	526	1628822	2	2107	1632598	1	527	1631522	mot_69374.png	mot_Hotdog.png	mot_Bison.png	524	1623422	ok
65037	08/03/2021 15:05:29	1	2	1635230	1	528	1634222	1637196	1	529	1636922	2	1513	inorganic	correct	1638746	1	529	1636922	1641545	1	530	1639622	4	849	1642428	1	531	1642322	mac_59169.png	mac_Dartpfeil.png	mac_Medaille.png	524	1623422	ok
65037	08/03/2021 15:05:40	1	3	1646526	1	532	1645022	1649542	1	533	1647722	2	1020	organic	incorrect	1650592	1	534	1650421	1654140	1	535	1653122	3	304	1654474	1	535	1653122	mol_07679.png	mol_Schimpanse.png	mol_Pizza.png	524	1623422	ok
65037	08/03/2021 15:05:51	1	4	1657906	1	536	1655822	1659822	1	537	1658521	2	504	inorganic	correct	1660355	1	537	1658521	1664870	1	539	1663922	4	478	1665387	1	539	1663922	fax_14883.png	fax_Klebeband.png	fax_Fahrrad.png	524	1623422	ok
65037	08/03/2021 15:06:04	1	5	1668402	1	540	1666621	1671801	1	541	1669322	3	1843	organic	correct	1673667	1	542	1672022	1677133	1	543	1674721	2	944	1678099	1	544	1677422	foj_08220.png	foj_Waffel.png	foj_Rose.png	524	1623422	ok
65037	08/03/2021 15:06:17	1	6	1681848	1	545	1680122	1685213	1	546	1682821	3	849	organic	correct	1686096	1	547	1685522	1689462	1	548	1688222	3	494	1689978	1	548	1688222	fok_09378.png	fok_Kaenguruh.png	fok_Palme.png	524	1623422	ok
65037	08/03/2021 15:06:28	1	7	1694810	1	550	1693622	1696526	1	551	1696321	3	869	organic	correct	1697426	1	551	1696321	1701474	1	552	1699021	4	473	1701974	1	553	1701722	mob_00760.png	mob_Kiwi.png	mob_Igel.png	524	1623422	ok
65037	08/03/2021 15:06:39	1	8	1706173	1	554	1704421	1707839	1	555	1707121	3	1162	inorganic	incorrect	1709022	1	555	1707121	1712704	1	557	1712521	2	290	1713020	1	557	1712521	fag_06539.png	fag_Portemonnaie.png	fag_Geschenk.png	524	1623422	ok
65037	08/03/2021 15:06:50	1	9	1716669	1	558	1715221	1718435	1	559	1717922	3	1093	organic	correct	1719552	1	559	1717922	1723167	1	560	1720621	3	408	1723600	1	561	1723321	fov_15046.png	fov_Fisch.png	fov_Zucchini.png	524	1623422	ok
65037	08/03/2021 15:07:02	1	10	1728382	1	562	1726022	1730581	1	563	1728721	2	1853	inorganic	correct	1732464	1	564	1731421	1735130	1	565	1734122	4	420	1735580	1	565	1734122	mau_49693.png	mau_Wasserventil.png	mau_Leiter.png	524	1623422	ok
65037	08/03/2021 15:07:15	1	11	1740278	1	567	1739521	1743710	1	568	1742221	3	856	organic	correct	1744610	1	568	1742221	1748942	1	570	1747621	4	562	1749541	1	570	1747621	mos_20953.png	mos_Eintagsfliege.png	mos_Traube.png	524	1623422	ok
65037	08/03/2021 15:07:28	1	12	1753140	1	572	1753021	1756106	1	573	1755721	2	521	inorganic	correct	1756656	1	573	1755721	1760904	1	574	1758421	4	529	1761471	1	575	1761121	fap_16329.png	fap_Knopf.png	fap_Kissen.png	524	1623422	ok
65037	08/03/2021 15:07:40	1	13	1766003	1	576	1763821	1768585	1	577	1766521	3	1769	organic	correct	1770384	1	578	1769221	1773683	1	579	1771921	2	437	1774150	1	579	1771921	foi_03389.png	foi_Apfelkuchen.png	foi_Pflanze.png	524	1623422	ok
65037	08/03/2021 15:07:51	1	14	1778015	1	581	1777321	1780015	1	581	1777321	2	1570	organic	incorrect	1781614	1	582	1780020	1784930	1	583	1782721	3	324	1785279	1	583	1782721	foa_00207.png	foa_Aubergine.png	foa_Marienkaefer.png	524	1623422	ok
65037	08/03/2021 15:08:03	1	15	1788928	1	585	1788120	1792160	1	586	1790821	2	638	organic	incorrect	1792844	1	586	1790821	1796559	1	588	1796220	3	391	1796975	1	588	1796220	mon_65798.png	mon_Fuchs.png	mon_Kartoffel.png	524	1623422	ok
65037	08/03/2021 15:08:15	1	16	1800907	1	589	1798921	1804373	1	591	1804320	3	1188	organic	correct	1805589	1	591	1804320	1808072	1	592	1807021	3	340	1808438	1	592	1807021	fou_17118.png	fou_Feige.png	fou_Schmetterling.png	524	1623422	ok
65037	08/03/2021 15:08:28	1	17	1812487	1	594	1812420	1815486	1	595	1815121	2	550	inorganic	correct	1816069	1	595	1815121	1820817	1	597	1820520	4	638	1821484	1	597	1820520	faj_07783.png	faj_Schuh.png	faj_Parfuem.png	524	1623422	ok
65037	08/03/2021 15:08:38	1	18	1825966	1	599	1825920	1828498	1	599	1825920	3	2189	organic	correct	1830714	1	600	1828620	1832297	1	601	1831321	3	324	1832647	1	601	1831321	foc_02157.png	foc_Eule.png	foc_Brombeere.png	524	1623422	ok
65037	08/03/2021 15:08:49	1	19	1835996	1	602	1834020	1838078	1	603	1836720	3	1968	organic	correct	1840094	1	604	1839421	1842993	1	605	1842120	2	252	1843293	1	605	1842120	moh_06446.png	moh_Birne.png	moh_Muecke.png	524	1623422	ok
65037	08/03/2021 15:09:00	1	20	1846809	1	606	1844820	1849025	1	607	1847521	2	610	inorganic	correct	1849658	1	607	1847521	1852957	1	609	1852920	2	347	1853340	1	609	1852920	mal_04470.png	mal_Kugelschreiber.png	mal_Drucker.png	524	1623422	ok
65037	08/03/2021 15:09:10	1	21	1857772	1	610	1855621	1859804	1	611	1858320	3	1538	inorganic	incorrect	1861370	1	612	1861020	1863503	1	612	1861020	2	330	1863869	1	613	1863721	fat_12032.png	fat_Einkaufswagen.png	fat_Kleiderbuegel.png	524	1623422	ok
65037	08/03/2021 15:09:21	1	22	1867735	1	614	1866420	1870767	1	615	1869121	3	928	organic	correct	1871734	1	615	1869121	1874932	1	617	1874520	3	924	1875882	1	617	1874520	foq_16799.png	foq_Pinguin.png	foq_Fenchel.png	524	1623422	ok
65037	08/03/2021 15:09:32	1	23	1878964	1	618	1877220	1880880	1	619	1879920	2	649	inorganic	correct	1881564	1	619	1879920	1885046	1	620	1882620	4	406	1885479	1	621	1885321	mai_06530.png	mai_Gewehr.png	mai_Auto.png	524	1623422	ok
65037	08/03/2021 15:09:42	1	24	1890277	1	622	1888020	1892710	1	623	1890720	3	1165	organic	correct	1893909	1	624	1893421	1896109	1	624	1893421	4	430	1896575	1	625	1896120	for_15187.png	for_Mandel.png	for_Seehund.png	524	1623422	ok
65037	08/03/2021 15:09:51	1	25	1899691	1	626	1898820	1901657	1	627	1901521	2	478	inorganic	correct	1902157	1	627	1901521	1904989	1	628	1904220	4	619	1905639	1	628	1904220	fac_02146.png	fac_Ohrring.png	fac_Haarbuerste.png	524	1623422	ok
65037	08/03/2021 15:10:01	1	26	1909188	1	629	1906920	1911537	1	630	1909621	3	1156	organic	correct	1912720	1	631	1912320	1915502	1	632	1915020	4	316	1915852	1	632	1915020	mom_59361.png	mom_Ei.png	mom_Loewe.png	524	1623422	ok
65037	08/03/2021 15:10:11	1	27	1919351	1	633	1917720	1921017	1	634	1920420	2	450	inorganic	correct	1921500	1	634	1920420	1925615	1	635	1923120	4	466	1926115	1	636	1925820	mae_01010.png	mae_Schach.png	mae_Taschenrechner.png	524	1623422	ok
65037	08/03/2021 15:10:21	1	28	1929181	1	637	1928520	1931697	1	638	1931220	3	1084	organic	correct	1932813	1	638	1931220	1935345	1	639	1933920	4	870	1936245	1	639	1933920	moj_11821.png	moj_Blatt.png	moj_Walnuss.png	524	1623422	ok
65037	08/03/2021 15:10:34	1	29	1938894	1	640	1936620	1942460	1	642	1942020	3	752	organic	correct	1943243	1	642	1942020	1947625	1	644	1947420	2	260	1947908	1	644	1947420	foe_08236.png	foe_Adler.png	foe_Tannenzapfen.png	524	1623422	ok
65037	08/03/2021 15:10:42	1	30	1951507	1	645	1950120	1953106	1	646	1952820	2	1626	inorganic	correct	1954755	1	646	1952820	1956472	1	647	1955519	3	799	1957305	1	647	1955519	mak_00987.png	mak_Socken.png	mak_Rucksack.png	524	1623422	ok
65037	08/03/2021 15:10:52	1	31	1959820	1	648	1958220	1961786	1	649	1960920	2	596	inorganic	correct	1962420	1	649	1960920	1966402	1	651	1966320	4	365	1966801	1	651	1966320	far_00736.png	far_Giesskanne.png	far_Heissluftballon.png	524	1623422	ok
65037	08/03/2021 15:11:05	1	32	1970117	1	652	1969020	1973116	1	653	1971719	2	453	organic	incorrect	1973599	1	653	1971719	1978331	1	655	1977120	2	927	1979280	1	655	1977120	mof_02408.png	mof_Spaghetti.png	mof_Hahn.png	524	1623422	ok
65037	08/03/2021 15:11:17	1	33	1983312	1	657	1982520	1986745	1	658	1985220	2	1309	inorganic	correct	1988094	1	659	1987919	1991176	1	660	1990620	4	423	1991643	1	660	1990620	maj_01545.png	maj_Computermaus.png	maj_Krawatte.png	524	1623422	ok
65037	08/03/2021 15:11:28	1	34	1994675	1	661	1993320	1996475	1	662	1996019	2	2309	organic	incorrect	1998807	1	663	1998720	2000923	1	663	1998720	2	203	2001156	1	663	1998720	moe_02012.png	moe_Pommes.png	moe_Waschbaer.png	524	1623422	ok
65037	08/03/2021 15:11:40	1	35	2006255	1	665	2004119	2009520	1	666	2006820	3	2023	inorganic	incorrect	2011570	1	667	2009519	2014735	1	668	2012219	3	244	2015002	1	669	2014920	fab_06018.png	fab_Kinderwagen.png	fab_Staubsauger.png	524	1623422	ok
65037	08/03/2021 15:11:51	1	36	2018301	1	670	2017619	2020966	1	671	2020319	2	645	inorganic	correct	2021633	1	671	2020319	2024648	1	672	2023020	3	416	2025098	1	672	2023020	map_41499.png	map_Globus.png	map_Pfeife.png	524	1623422	ok
65037	08/03/2021 15:12:02	1	37	2029214	1	674	2028419	2030946	1	674	2028419	3	1969	organic	correct	2032946	1	675	2031120	2035345	1	676	2033819	4	347	2035728	1	676	2033819	mog_03090.png	mog_Pilz.png	mog_Fledermaus.png	524	1623422	ok
65037	08/03/2021 15:12:13	1	38	2039627	1	678	2039220	2041776	1	678	2039220	2	410	inorganic	correct	2042209	1	679	2041919	2047108	1	680	2044619	4	420	2047557	1	681	2047319	fai_07494.png	fai_Kommode.png	fai_Foehn.png	524	1623422	ok
65037	08/03/2021 15:12:26	1	39	2051073	1	682	2050019	2054322	1	683	2052719	3	1573	inorganic	incorrect	2055921	1	684	2055419	2059104	1	685	2058119	2	323	2059453	1	685	2058119	maw_04767.png	maw_Schlauchboot.png	maw_Pingpongschlaeger.png	524	1623422	ok
65037	08/03/2021 15:12:39	1	40	2063769	1	687	2063519	2067234	1	688	2066219	2	556	organic	incorrect	2067817	1	688	2066219	2072216	1	690	2071619	2	301	2072549	1	690	2071619	fop_00621.png	fop_Mango.png	fop_Koala.png	524	1623422	ok
65037	08/03/2021 15:12:53	1	41	2077264	1	692	2077019	2080630	1	693	2079719	3	1578	organic	correct	2082229	1	693	2079719	2085178	1	695	2085119	4	632	2085844	1	695	2085119	mou_01862.png	mou_Kraehe.png	mou_Croissant.png	524	1623422	ok
65037	08/03/2021 15:13:02	1	42	2090443	1	696	2087819	2092059	1	697	2090519	3	1860	inorganic	incorrect	2093942	1	698	2093218	2095658	1	698	2093218	2	261	2095941	1	699	2095919	fal_07906.png	fal_Buegeleisen.png	fal_Korb.png	524	1623422	ok
65037	08/03/2021 15:13:13	1	43	2099873	1	700	2098619	2101906	1	701	2101318	2	1020	inorganic	correct	2102955	1	701	2101318	2105971	1	702	2104019	2	761	2106754	1	703	2106719	mao_11634.png	mao_Stempel.png	mao_Kegel.png	524	1623422	ok
65037	08/03/2021 15:13:24	1	44	2110853	1	704	2109418	2114002	1	705	2112119	2	1601	inorganic	correct	2115634	1	706	2114819	2117567	1	707	2117518	2	862	2118450	1	707	2117518	mat_23275.png	mat_Feuerzeug.png	mat_Helm.png	524	1623422	ok
65037	08/03/2021 15:13:36	1	45	2122016	1	708	2120219	2124831	1	709	2122919	3	415	inorganic	incorrect	2125281	1	709	2122919	2129530	1	711	2128319	2	767	2130329	1	711	2128319	mas_41366.png	mas_Bueroklammer.png	mas_Tisch.png	524	1623422	ok
65037	08/03/2021 15:13:48	1	46	2134195	1	713	2133718	2136861	1	714	2136419	2	520	inorganic	correct	2137427	1	714	2136419	2140576	1	715	2139118	4	821	2141426	1	715	2139118	fan_17286.png	fan_Lampe.png	fan_Klavier.png	524	1623422	ok
65037	08/03/2021 15:13:58	1	47	2145758	1	717	2144519	2147740	1	718	2147218	3	1180	inorganic	incorrect	2148956	1	718	2147218	2151439	1	719	2149918	3	1271	2152739	1	720	2152619	faw_14215.png	faw_Hufeisen.png	faw_Kuechenmaschine.png	524	1623422	ok
65037	08/03/2021 15:14:09	1	48	2156387	1	721	2155318	2158070	1	722	2158018	2	1871	organic	incorrect	2159969	1	722	2158018	2162718	1	723	2160719	3	473	2163218	1	723	2160719	fot_00797.png	fot_Taube.png	fot_Salat.png	524	1623422	ok
65037	08/03/2021 15:14:21	1	49	2166534	1	725	2166118	2169833	1	726	2168819	3	1130	organic	correct	2170999	1	726	2168819	2174798	1	728	2174218	4	1065	2175897	1	728	2174218	mot_69770.png	mot_Bison.png	mot_Hotdog.png	524	1623422	ok
65037	08/03/2021 15:14:33	1	50	2179246	1	729	2176919	2181379	1	730	2179618	2	602	inorganic	correct	2182012	1	730	2179618	2186144	1	732	2185018	4	307	2186494	1	732	2185018	mac_59752.png	mac_Medaille.png	mac_Dartpfeil.png	524	1623422	ok
65037	08/03/2021 15:14:44	1	51	2190776	1	734	2190419	2194075	1	735	2193118	3	960	organic	correct	2195058	1	735	2193118	2197723	1	736	2195818	2	578	2198340	1	736	2195818	mol_11363.png	mol_Pizza.png	mol_Schimpanse.png	524	1623422	ok
65037	08/03/2021 15:14:54	1	52	2201572	1	738	2201218	2204204	1	739	2203918	2	1319	inorganic	correct	2205554	1	739	2203918	2207987	1	740	2206618	4	323	2208336	1	740	2206618	fax_15310.png	fax_Fahrrad.png	fax_Klebeband.png	524	1623422	ok
65037	08/03/2021 15:15:04	1	53	2212218	1	742	2212018	2213901	1	742	2212018	3	906	organic	correct	2214834	1	743	2214719	2218333	1	744	2217418	4	303	2218666	1	744	2217418	foj_08937.png	foj_Rose.png	foj_Waffel.png	524	1623422	ok
65037	08/03/2021 15:15:16	1	54	2221815	1	745	2220118	2225097	1	746	2222818	3	1220	organic	correct	2226347	1	747	2225518	2229379	1	748	2228218	3	339	2229746	1	748	2228218	mob_22833.png	mob_Igel.png	mob_Kiwi.png	524	1623422	ok
65037	08/03/2021 15:15:30	1	55	2233878	1	750	2233618	2237393	1	751	2236318	3	658	organic	correct	2238093	1	751	2236318	2242458	1	753	2241718	4	824	2243308	1	753	2241718	fok_09860.png	fok_Palme.png	fok_Kaenguruh.png	524	1623422	ok
65037	08/03/2021 15:15:40	1	56	2247490	1	755	2247118	2249922	1	756	2249818	2	389	inorganic	correct	2250339	1	756	2249818	2254371	1	757	2252518	4	341	2254737	1	757	2252518	fag_06551.png	fag_Geschenk.png	fag_Portemonnaie.png	524	1623422	ok
65037	08/03/2021 15:15:52	1	57	2257820	1	758	2255218	2260852	1	760	2260618	3	997	organic	correct	2261885	1	760	2260618	2265917	1	761	2263318	4	961	2266900	1	762	2266018	fov_15193.png	fov_Zucchini.png	fov_Fisch.png	524	1623422	ok
65037	08/03/2021 15:16:04	1	58	2269932	1	763	2268717	2272648	1	764	2271418	2	1429	inorganic	correct	2274114	1	764	2271418	2277530	1	766	2276817	2	390	2277946	1	766	2276817	mau_58144.png	mau_Leiter.png	mau_Wasserventil.png	524	1623422	ok
65037	08/03/2021 15:16:14	1	59	2281695	1	767	2279518	2284711	1	768	2282218	2	1589	inorganic	correct	2286343	1	769	2284917	2288759	1	770	2287618	4	287	2289076	1	770	2287618	fap_17119.png	fap_Kissen.png	fap_Knopf.png	524	1623422	ok
65037	08/03/2021 15:16:27	1	60	2292258	1	771	2290318	2295024	1	772	2293017	2	1051	organic	incorrect	2296107	1	773	2295718	2299589	1	774	2298418	2	1115	2300739	1	774	2298418	mos_23223.png	mos_Traube.png	mos_Eintagsfliege.png	524	1623422	ok
65037	08/03/2021 15:16:39	1	61	2304454	1	776	2303818	2307570	1	777	2306518	3	606	organic	correct	2308203	1	777	2306518	2312501	1	779	2311918	3	686	2313218	1	779	2311918	mon_69587.png	mon_Kartoffel.png	mon_Fuchs.png	524	1623422	ok
65037	08/03/2021 15:16:49	1	62	2316916	1	780	2314617	2318532	1	781	2317317	3	1826	organic	correct	2320382	1	782	2320018	2321948	1	782	2320018	3	994	2322964	1	783	2322717	fou_18966.png	fou_Schmetterling.png	fou_Feige.png	524	1623422	ok
65037	08/03/2021 15:17:00	1	63	2326413	1	784	2325417	2328462	1	785	2328118	3	1485	organic	correct	2329979	1	785	2328118	2333178	1	786	2330817	4	401	2333627	1	787	2333517	foi_05187.png	foi_Pflanze.png	foi_Apfelkuchen.png	524	1623422	ok
65037	08/03/2021 15:17:11	1	64	2337726	1	788	2336218	2340059	1	789	2338917	3	1302	organic	correct	2341391	1	789	2338917	2345074	1	791	2344318	3	840	2345940	1	791	2344318	foa_00426.png	foa_Marienkaefer.png	foa_Aubergine.png	524	1623422	ok
65037	08/03/2021 15:17:21	1	65	2348622	1	792	2347017	2351205	1	793	2349717	3	978	organic	correct	2352204	1	793	2349717	2354604	1	794	2352418	4	2600	2357236	1	795	2355117	foc_02664.png	foc_Brombeere.png	foc_Eule.png	524	1623422	ok
65037	08/03/2021 15:17:33	1	66	2358652	1	796	2357817	2362034	1	797	2360517	3	1016	organic	correct	2363084	1	797	2360517	2367049	1	799	2365917	4	618	2367699	1	799	2365917	moh_07125.png	moh_Muecke.png	moh_Birne.png	524	1623422	ok
65037	08/03/2021 15:17:42	1	67	2370815	1	800	2368617	2372847	1	801	2371317	3	1040	inorganic	incorrect	2373914	1	801	2371317	2376746	1	802	2374017	4	1140	2377912	1	803	2376717	faj_07849.png	faj_Parfuem.png	faj_Schuh.png	524	1623422	ok
65037	08/03/2021 15:17:54	1	68	2380145	1	804	2379417	2383377	1	805	2382117	2	674	inorganic	correct	2384094	1	805	2382117	2388192	1	807	2387517	4	771	2388992	1	807	2387517	mal_20552.png	mal_Drucker.png	mal_Kugelschreiber.png	524	1623422	ok
65037	08/03/2021 15:18:04	1	69	2392258	1	808	2390217	2394590	1	809	2392917	2	780	organic	incorrect	2395407	1	809	2392917	2398339	1	810	2395617	4	1410	2399772	1	811	2398316	for_15880.png	for_Seehund.png	for_Mandel.png	524	1623422	ok
65037	08/03/2021 15:18:16	1	70	2402387	1	812	2401017	2404903	1	813	2403717	3	1465	organic	correct	2406403	1	813	2403717	2409302	1	815	2409117	2	1458	2410785	1	815	2409117	foq_17341.png	foq_Fenchel.png	foq_Pinguin.png	524	1623422	ok
65037	08/03/2021 15:18:27	1	71	2413967	1	816	2411817	2416716	1	817	2414516	2	974	inorganic	correct	2417716	1	818	2417217	2420748	1	819	2419917	4	358	2421131	1	819	2419917	fat_14140.png	fat_Kleiderbuegel.png	fat_Einkaufswagen.png	524	1623422	ok
65037	08/03/2021 15:18:38	1	72	2424497	1	820	2422616	2427596	1	821	2425317	2	299	inorganic	correct	2427929	1	821	2425317	2432027	1	823	2430716	4	316	2432394	1	823	2430716	mai_23761.png	mai_Auto.png	mai_Gewehr.png	524	1623422	ok
65037	08/03/2021 15:18:49	1	73	2435776	1	824	2433417	2437442	1	825	2436117	3	1350	inorganic	incorrect	2438825	1	825	2436117	2441758	1	827	2441517	2	345	2442141	1	827	2441517	mae_36426.png	mae_Taschenrechner.png	mae_Schach.png	524	1623422	ok
65037	08/03/2021 15:18:58	1	74	2446556	1	828	2444216	2448139	1	829	2446916	3	1887	organic	correct	2450055	1	830	2449617	2451554	1	830	2449617	2	283	2451871	1	830	2449617	mom_59641.png	mom_Loewe.png	mom_Ei.png	524	1623422	ok
65037	08/03/2021 15:19:08	1	75	2455553	1	832	2455016	2458435	1	833	2457717	2	335	inorganic	correct	2458802	1	833	2457717	2462267	1	834	2460416	4	284	2462584	1	834	2460416	fac_02970.png	fac_Haarbuerste.png	fac_Ohrring.png	524	1623422	ok
65037	08/03/2021 15:19:19	1	76	2465949	1	836	2465817	2467549	1	836	2465817	3	839	organic	correct	2468415	1	836	2465817	2472464	1	838	2471216	4	1427	2473913	1	838	2471216	moj_11860.png	moj_Walnuss.png	moj_Blatt.png	524	1623422	ok
65037	08/03/2021 15:19:30	1	77	2477179	1	840	2476616	2479495	1	841	2479316	2	1061	inorganic	correct	2480578	1	841	2479316	2483777	1	842	2482017	4	306	2484127	1	842	2482017	mak_03979.png	mak_Rucksack.png	mak_Socken.png	524	1623422	ok
65037	08/03/2021 15:19:39	1	78	2487759	1	844	2487416	2490491	1	845	2490116	3	579	organic	correct	2491107	1	845	2490116	2493990	1	846	2492816	4	376	2494390	1	846	2492816	mof_06901.png	mof_Hahn.png	mof_Spaghetti.png	524	1623422	ok
65037	08/03/2021 15:19:52	1	79	2497339	1	847	2495516	2500254	1	848	2498216	2	2257	inorganic	correct	2502537	1	849	2500916	2504603	1	850	2503616	4	331	2504969	1	850	2503616	far_06518.png	far_Heissluftballon.png	far_Giesskanne.png	524	1623422	ok
65037	08/03/2021 15:20:04	1	80	2509585	1	852	2509016	2511850	1	853	2511716	3	381	organic	correct	2512267	1	853	2511716	2516432	1	854	2514416	4	880	2517349	1	855	2517116	foe_08514.png	foe_Tannenzapfen.png	foe_Adler.png	524	1623422	ok
65037	08/03/2021 15:20:15	1	81	2521631	1	856	2519816	2523896	1	857	2522516	2	551	inorganic	correct	2524480	1	857	2522516	2527645	1	858	2525216	2	912	2528595	1	859	2527916	maj_01546.png	maj_Krawatte.png	maj_Computermaus.png	524	1623422	ok
65037	08/03/2021 15:20:26	1	82	2532910	1	860	2530616	2535476	1	861	2533316	3	450	inorganic	incorrect	2535959	1	861	2533316	2539774	1	863	2538716	2	318	2540124	1	863	2538716	fab_06286.png	fab_Staubsauger.png	fab_Kinderwagen.png	524	1623422	ok
65037	08/03/2021 15:20:36	1	83	2544389	1	865	2544116	2546156	1	865	2544116	3	1016	organic	correct	2547205	1	866	2546816	2550304	1	867	2549516	3	825	2551154	1	867	2549516	moe_23630.png	moe_Waschbaer.png	moe_Pommes.png	524	1623422	ok
65037	08/03/2021 15:20:45	1	84	2554003	1	868	2552216	2555902	1	869	2554916	2	1000	inorganic	correct	2556935	1	869	2554916	2559734	1	870	2557616	4	281	2560051	1	870	2557616	map_49576.png	map_Pfeife.png	map_Globus.png	524	1623422	ok
65037	08/03/2021 15:20:55	1	85	2563116	1	872	2563016	2565399	1	872	2563016	2	579	organic	incorrect	2565999	1	873	2565716	2568848	1	874	2568415	3	235	2569114	1	874	2568415	fop_07937.png	fop_Koala.png	fop_Mango.png	524	1623422	ok
65037	08/03/2021 15:21:06	1	86	2572930	1	875	2571116	2575596	1	876	2573815	2	384	inorganic	correct	2576012	1	876	2573815	2580144	1	878	2579216	2	246	2580444	1	878	2579216	fai_07637.png	fai_Foehn.png	fai_Kommode.png	524	1623422	ok
65037	08/03/2021 15:21:18	1	87	2583859	1	879	2581915	2586808	1	880	2584616	2	1291	organic	incorrect	2588125	1	881	2587316	2591923	1	882	2590015	3	227	2592173	1	882	2590015	mog_03277.png	mog_Fledermaus.png	mog_Pilz.png	524	1623422	ok
65037	08/03/2021 15:21:31	1	88	2595889	1	884	2595416	2598521	1	885	2598115	2	1261	inorganic	correct	2599804	1	885	2598115	2603736	1	887	2603516	3	464	2604236	1	887	2603516	maw_22459.png	maw_Pingpongschlaeger.png	maw_Schlauchboot.png	524	1623422	ok
65037	08/03/2021 15:21:44	1	89	2608784	1	888	2606215	2612233	1	890	2611616	3	806	inorganic	incorrect	2613066	1	890	2611616	2617481	1	892	2617016	2	758	2618265	1	892	2617016	mao_19000.png	mao_Kegel.png	mao_Stempel.png	524	1623422	ok
65037	08/03/2021 15:21:54	1	90	2622263	1	893	2619715	2624312	1	894	2622415	3	1442	inorganic	incorrect	2625779	1	895	2625116	2628328	1	896	2627815	2	1725	2630094	1	896	2627815	fal_07977.png	fal_Korb.png	fal_Buegeleisen.png	524	1623422	ok
65037	08/03/2021 15:22:04	1	91	2631893	1	897	2630515	2634292	1	898	2633216	3	910	organic	correct	2635225	1	898	2633216	2637891	1	899	2635915	2	710	2638624	1	899	2635915	mou_06524.png	mou_Croissant.png	mou_Kraehe.png	524	1623422	ok
65037	08/03/2021 15:22:14	1	92	2641657	1	901	2641316	2644189	1	902	2644015	2	480	inorganic	correct	2644706	1	902	2644015	2647938	1	903	2646715	4	1125	2649087	1	903	2646715	mat_23754.png	mat_Helm.png	mat_Feuerzeug.png	524	1623422	ok
65037	08/03/2021 15:22:25	1	93	2652370	1	905	2652115	2655252	1	906	2654815	2	1628	inorganic	correct	2656901	1	906	2654815	2659084	1	907	2657516	3	303	2659417	1	907	2657516	fan_18894.png	fan_Klavier.png	fan_Lampe.png	524	1623422	ok
65037	08/03/2021 15:22:36	1	94	2663166	1	909	2662915	2665748	1	910	2665615	2	1835	organic	incorrect	2667614	1	910	2665615	2669431	1	911	2668315	4	393	2669847	1	911	2668315	fot_06092.png	fot_Salat.png	fot_Taube.png	524	1623422	ok
65037	08/03/2021 15:22:47	1	95	2673912	1	913	2673715	2677445	1	914	2676415	2	417	inorganic	correct	2677894	1	914	2676415	2681360	1	915	2679115	4	603	2682010	1	916	2681815	mas_41937.png	mas_Tisch.png	mas_Bueroklammer.png	524	1623422	ok
65037	08/03/2021 15:22:59	1	96	2685109	1	917	2684515	2686891	1	917	2684515	3	1573	inorganic	incorrect	2688491	1	918	2687215	2691606	1	919	2689915	2	258	2691890	1	919	2689915	faw_14685.png	faw_Kuechenmaschine.png	faw_Hufeisen.png	524	1623422	ok
