ID	DateTime	Run	Delayed_Retrieval_Trial	First_Pulse_Time	FaceRecog_OnsetTime	FaceRecog_OnsetTimeUncertainty	FaceRecog_fMRI_Pulse	FaceRecog_fMRI_PulseTime	Assoc_Retrieval_OnsetTime	Assoc_Retrieval_OnsetTimeUncertainty	Assoc_Retrieval_fMRI_Pulse	Assoc_Retrieval_fMRI_PulseTime	Assoc_Retrieval_Pressed_Button	Assoc_Retrieval_RT	Assoc_Retrieval_Response_Category	Assoc_Retrieval_Accuracy	Assoc_Retrieval_Feedback_OnsetTime	Assoc_Retrieval_Feedback_OnsetTimeUncertainty	Assoc_Retrieval_Feedback_fMRI_Pulse	Assoc_Retrieval_Feedback_fMRI_PulseTime	Retrieval_consc_Rating_OnsetTime	Retrieval_consc_Rating_OnsetTimeUncertainty	Retrieval_consc_Rating_fMRI_Pulse	Retrieval_consc_Rating_fMRI_PulseTime	Retrieval_consc_Rating_Pressed_Button	Retrieval_consc_Rating_RT	Retrieval_consc_Rating_Feedback_OnsetTime	Retrieval_consc_Rating_Feedback_OnsetTimeUncertainty	Retrieval_consc_Rating_Feedback_fMRI_Pulse	Retrieval_consc_Rating_Feedback_fMRI_PulseTime	ForcedChoice_OnsetTime	ForcedChoice_OnsetTimeUncertainty	ForcedChoice_fMRI_Pulse	ForcedChoice_fMRI_PulseTime	ForcedChoice_Pressed_Button	ForcedChoice_RT	ForcedChoice_Response_Category	ForcedChoice_Accuracy	ForcedChoice_Feedback_OnsetTime	ForcedChoice_Feedback_OnsetTimeUncertainty	ForcedChoice_Feedback_fMRI_Pulse	ForcedChoice_Feedback_fMRI_PulseTime	Recognition_consc_Rating_OnsetTime	Recognition_consc_Rating_OnsetTimeUncertainty	Recognition_consc_Rating_fMRI_Pulse	Recognition_consc_Rating_fMRI_PulseTime	Recognition_consc_Rating_Pressed_Button	Recognition_consc_Rating_RT	Recognition_consc_Rating_Feedback_OnsetTime	Recognition_consc_Rating_Feedback_OnsetTimeUncertainty	Recognition_consc_Rating_Feedback_fMRI_Pulse	Recognition_consc_Rating_Feedback_fMRI_PulseTime	Presented_Person	Presented_Target	Presented_Lure	TrialStatus
65037	08/04/2021 15:06:54	1	1	54844	68960	1	6	68344	72508	1	7	71044	2	579	inorganic	correct	73108	1	7	71044	75941	1	8	73744	4	469	76457	1	8	73744	79856	1	10	79144	3	1111	inorganic	correct	80989	1	10	79144	84021	1	11	81844	4	387	84438	1	11	81844	fax_14883.png	fax_Klebeband.png	fax_Fahrrad.png	ok
65037	08/04/2021 15:07:15	1	2	54844	87887	1	13	87244	90302	1	14	89944	2	499	inorganic	correct	90836	1	14	89944	94967	1	15	92644	4	279	95284	1	15	92644	100232	1	17	98044	2	647	inorganic	correct	100915	1	18	100744	105397	1	19	103444	4	782	106214	1	20	106143	mac_59169.png	mac_Dartpfeil.png	mac_Medaille.png	ok
65037	08/04/2021 15:07:36	1	3	54844	108979	1	21	108844	112528	1	22	111544	3	1946	organic	correct	114511	1	23	114243	116110	1	23	114243	2	1312	117460	1	24	116944	121009	1	25	119644	2	1880	organic	correct	122925	1	26	122343	125607	1	27	125044	4	468	126124	1	27	125044	mot_69374.png	mot_Hotdog.png	mot_Bison.png	ok
65037	08/04/2021 15:07:55	1	4	54844	129589	1	28	127744	131822	1	29	130443	3	1267	organic	correct	133121	1	29	130443	136520	1	31	135844	2	297	136853	1	31	135844	140869	1	32	138543	3	2869	organic	correct	143768	1	33	141244	144734	1	34	143944	2	601	145367	1	34	143944	mol_07679.png	mol_Schimpanse.png	mol_Pizza.png	ok
65037	08/04/2021 15:08:16	1	5	54844	148649	1	35	146643	152065	1	37	152043	3	504	organic	correct	152598	1	37	152043	155780	1	38	154743	4	325	156130	1	38	154743	160329	1	40	160143	2	622	organic	correct	160979	1	40	160143	164694	1	41	162843	4	544	165260	1	41	162843	mob_00760.png	mob_Kiwi.png	mob_Igel.png	ok
65037	08/04/2021 15:08:36	1	6	54844	169476	1	43	168243	171875	1	44	170943	3	912	organic	correct	172825	1	44	170943	176240	1	45	173644	3	1033	177323	1	46	176343	179789	1	47	179043	3	1012	organic	correct	180822	1	47	179043	184954	1	49	184443	3	1075	186053	1	49	184443	fok_09378.png	fok_Kaenguruh.png	fok_Palme.png	ok
65037	08/04/2021 15:08:56	1	7	54844	189736	1	50	187143	192485	1	51	189844	2	565	inorganic	correct	193084	1	52	192543	196167	1	53	195243	2	451	196650	1	53	195243	199782	1	54	197943	2	1448	inorganic	correct	201265	1	55	200643	204547	1	56	203343	4	1003	205580	1	56	203343	fag_06539.png	fag_Portemonnaie.png	fag_Geschenk.png	ok
65037	08/04/2021 15:09:16	1	8	54844	209479	1	58	208743	211995	1	59	211443	3	1814	organic	correct	213844	1	59	211443	217276	1	61	216843	2	747	218059	1	61	216843	222141	1	62	219543	3	2690	organic	correct	224874	1	63	222243	225773	1	64	224943	4	759	226573	1	64	224943	foj_08220.png	foj_Waffel.png	foj_Rose.png	ok
65037	08/04/2021 15:09:35	1	9	54844	229472	1	65	227643	232271	1	66	230343	3	939	organic	correct	233238	1	67	233043	236087	1	68	235743	2	1680	237803	1	68	235743	240069	1	69	238443	2	1719	organic	correct	241818	1	70	241143	244967	1	71	243842	4	723	245717	1	71	243842	fov_15046.png	fov_Fisch.png	fov_Zucchini.png	ok
65037	08/04/2021 15:09:56	1	10	54844	248316	1	72	246543	250582	1	73	249243	3	870	organic	correct	251481	1	73	249243	255530	1	75	254643	4	1036	256596	1	75	254643	260078	1	77	260042	3	1202	organic	correct	261311	1	77	260042	264610	1	78	262743	4	526	265160	1	78	262743	mos_20953.png	mos_Eintagsfliege.png	mos_Traube.png	ok
65037	08/04/2021 15:10:16	1	11	54844	269642	1	80	268142	272308	1	81	270843	2	568	inorganic	correct	272924	1	81	270843	277439	1	83	276242	4	503	277972	1	83	276242	281788	1	85	281642	2	2323	inorganic	correct	284137	1	85	281642	285570	1	86	284342	4	683	286286	1	86	284342	mau_49693.png	mau_Wasserventil.png	mau_Leiter.png	ok
65037	08/04/2021 15:10:33	1	12	54844	289169	1	87	287043	291251	1	88	289742	2	462	inorganic	correct	291751	1	88	289742	294800	1	89	292442	4	433	295267	1	90	295143	299482	1	91	297842	2	778	inorganic	correct	300282	1	91	297842	303414	1	93	303243	4	419	303864	1	93	303243	fap_16329.png	fap_Knopf.png	fap_Kissen.png	ok
65037	08/04/2021 15:10:53	1	13	54844	307046	1	94	305942	308995	1	95	308642	2	991	organic	incorrect	310012	1	95	308642	313011	1	96	311343	2	698	313744	1	96	311343	318292	1	98	316742	3	2262	organic	correct	320575	1	99	319443	322074	1	99	319443	2	1066	323191	1	100	322142	foi_03389.png	foi_Apfelkuchen.png	foi_Pflanze.png	ok
65037	08/04/2021 15:11:13	1	14	54844	326756	1	101	324842	328539	1	102	327543	2	547	organic	incorrect	329122	1	102	327543	332021	1	103	330242	2	280	332337	1	103	330242	336453	1	105	335642	3	2722	organic	correct	339202	1	106	338342	341651	1	107	341042	2	426	342101	1	107	341042	mon_65798.png	mon_Fuchs.png	mon_Kartoffel.png	ok
65037	08/04/2021 15:11:33	1	15	54844	346799	1	109	346442	349365	1	110	349142	3	434	organic	correct	349832	1	110	349142	354547	1	111	351842	2	271	354847	1	112	354542	358179	1	113	357242	3	1498	organic	correct	359712	1	113	357242	362294	1	114	359942	4	1156	363477	1	115	362642	fou_17118.png	fou_Feige.png	fou_Schmetterling.png	ok
65037	08/04/2021 15:11:51	1	16	54844	366892	1	116	365342	368542	1	117	368042	3	950	organic	correct	369525	1	117	368042	372357	1	118	370742	2	263	372674	1	118	370742	376006	1	119	373442	2	2315	organic	correct	378355	1	120	376142	380788	1	121	378842	2	473	381288	1	121	378842	foa_00207.png	foa_Aubergine.png	foa_Marienkaefer.png	ok
65037	08/04/2021 15:12:11	1	17	54844	384586	1	123	384242	387502	1	124	386942	2	358	inorganic	correct	387885	1	124	386942	391534	1	125	389641	4	309	391867	1	125	389641	396216	1	127	395042	3	1080	inorganic	correct	397332	1	127	395042	401364	1	129	400442	4	600	401997	1	129	400442	faj_07783.png	faj_Schuh.png	faj_Parfuem.png	ok
65037	08/04/2021 15:12:31	1	18	54844	404946	1	130	403142	408478	1	131	405841	2	507	organic	incorrect	409012	1	132	408542	411827	1	133	411242	2	876	412727	1	133	411242	416509	1	134	413941	3	1559	organic	correct	418092	1	135	416642	420674	1	136	419341	4	332	421058	1	136	419341	moh_06446.png	moh_Birne.png	moh_Muecke.png	ok
65037	08/04/2021 15:12:50	1	19	54844	424273	1	137	422041	426139	1	138	424742	3	522	inorganic	incorrect	426689	1	138	424742	429805	1	139	427441	2	238	430071	1	139	427441	433637	1	141	432842	3	1374	inorganic	correct	435036	1	141	432842	439201	1	143	438241	4	366	439601	1	143	438241	mal_04470.png	mal_Kugelschreiber.png	mal_Drucker.png	ok
65037	08/04/2021 15:13:08	1	20	54844	443966	1	145	443641	445916	1	145	443641	2	1004	organic	incorrect	446949	1	146	446341	450398	1	147	449042	3	895	451331	1	147	449042	454130	1	148	451741	3	1785	organic	correct	455946	1	149	454441	457762	1	150	457142	3	1691	459478	1	150	457142	foc_02157.png	foc_Eule.png	foc_Brombeere.png	ok
65037	08/04/2021 15:13:26	1	21	54844	461244	1	151	459841	463393	1	152	462542	2	582	inorganic	correct	464010	1	152	462542	466892	1	153	465241	2	1141	468058	1	154	467941	470957	1	155	470642	2	1708	inorganic	correct	472707	1	155	470642	474689	1	156	473341	4	341	475056	1	156	473341	mai_06530.png	mai_Gewehr.png	mai_Auto.png	ok
65037	08/04/2021 15:13:43	1	22	54844	479355	1	158	478742	481287	1	158	478742	3	889	inorganic	incorrect	482204	1	159	481441	484753	1	160	484141	2	403	485186	1	160	484141	488252	1	161	486842	2	1459	inorganic	correct	489734	1	162	489541	492200	1	162	489541	4	586	492817	1	163	492241	fat_12032.png	fat_Einkaufswagen.png	fat_Kleiderbuegel.png	ok
65037	08/04/2021 15:14:02	1	23	54844	496216	1	164	494942	498948	1	165	497641	3	427	organic	correct	499398	1	165	497641	503530	1	167	503042	4	1150	504713	1	167	503042	507445	1	168	505741	2	858	organic	correct	508328	1	168	505741	511460	1	170	511141	4	933	512427	1	170	511141	for_15187.png	for_Mandel.png	for_Seehund.png	ok
65037	08/04/2021 15:14:23	1	24	54844	515859	1	171	513841	519241	1	172	516541	2	1215	organic	incorrect	520507	1	173	519241	522973	1	174	521941	3	805	523806	1	174	521941	527888	1	176	527341	2	2293	organic	correct	530204	1	177	530041	532103	1	177	530041	4	761	532903	1	178	532741	foq_16799.png	foq_Pinguin.png	foq_Fenchel.png	ok
65037	08/04/2021 15:14:43	1	25	54844	536252	1	179	535441	538651	1	180	538141	2	279	inorganic	correct	538968	1	180	538141	542816	1	181	540841	4	831	543683	1	182	543541	547448	1	183	546241	2	709	inorganic	correct	548181	1	183	546241	551047	1	184	548941	4	1051	552130	1	185	551641	fac_02146.png	fac_Ohrring.png	fac_Haarbuerste.png	ok
65037	08/04/2021 15:15:03	1	26	54844	556379	1	186	554341	559911	1	188	559741	2	447	inorganic	correct	560394	1	188	559741	564576	1	189	562441	4	297	564909	1	189	562441	568441	1	191	567841	3	1336	inorganic	correct	569824	1	191	567841	572840	1	192	570541	4	591	573456	1	193	573240	mae_01010.png	mae_Schach.png	mae_Taschenrechner.png	ok
65037	08/04/2021 15:15:23	1	27	54844	576622	1	194	575941	579354	1	195	578641	3	530	organic	correct	579921	1	195	578641	583719	1	196	581340	4	361	584103	1	197	584041	588884	1	198	586741	3	662	organic	correct	589567	1	199	589440	592500	1	200	592141	4	894	593416	1	200	592141	mom_59361.png	mom_Ei.png	mom_Loewe.png	ok
65037	08/04/2021 15:15:42	1	28	54844	596348	1	201	594841	598831	1	202	597540	3	697	organic	correct	599564	1	202	597540	603863	1	204	602940	4	685	604579	1	204	602940	607411	1	205	605640	2	885	organic	correct	608328	1	205	605640	611976	1	207	611040	4	352	612360	1	207	611040	moj_11821.png	moj_Blatt.png	moj_Walnuss.png	ok
65037	08/04/2021 15:16:03	1	29	54844	615509	1	208	613740	617525	1	209	616442	2	963	inorganic	correct	618541	1	209	616442	620973	1	210	619140	4	841	621856	1	210	619140	626022	1	212	624542	3	650	inorganic	correct	626705	1	212	624542	631370	1	214	629940	4	355	631753	1	214	629940	far_00736.png	far_Giesskanne.png	far_Heissluftballon.png	ok
65037	08/04/2021 15:16:24	1	30	54844	636268	1	216	635340	638418	1	217	638041	3	530	organic	correct	638984	1	217	638041	642983	1	218	640742	2	258	643266	1	218	640742	646881	1	220	646141	3	1637	organic	correct	648547	1	220	646141	652196	1	222	651541	4	577	652796	1	222	651541	foe_08236.png	foe_Adler.png	foe_Tannenzapfen.png	ok
65037	08/04/2021 15:16:45	1	31	54844	657361	1	224	656941	659977	1	225	659641	2	400	organic	incorrect	660410	1	225	659641	664342	1	226	662341	2	863	665242	1	227	665041	669690	1	228	667741	3	2607	organic	incorrect	672323	1	229	670441	674156	1	230	673141	2	394	674572	1	230	673141	mof_02408.png	mof_Spaghetti.png	mof_Hahn.png	ok
65037	08/04/2021 15:17:02	1	32	54844	678771	1	232	678541	680537	1	232	678541	2	586	inorganic	correct	681153	1	232	678541	683952	1	233	681241	3	346	684335	1	234	683941	688101	1	235	686641	3	1952	inorganic	correct	690083	1	236	689341	692166	1	237	692041	4	457	692649	1	237	692041	mak_00987.png	mak_Socken.png	mak_Rucksack.png	ok
65037	08/04/2021 15:17:25	1	33	54844	695815	1	238	694740	698564	1	239	697441	2	322	inorganic	correct	698914	1	239	697441	702696	1	240	700141	4	472	703196	1	241	702840	707911	1	242	705541	2	803	inorganic	correct	708744	1	243	708241	713476	1	244	710940	4	322	713825	1	245	713641	maj_01545.png	maj_Computermaus.png	maj_Krawatte.png	ok
65037	08/04/2021 15:17:44	1	34	54844	718657	1	246	716341	720573	1	247	719040	2	1384	inorganic	correct	721989	1	248	721741	725305	1	249	724441	2	611	725938	1	249	724441	729154	1	250	727140	3	1885	inorganic	correct	731070	1	251	729841	732852	1	252	732540	3	712	733602	1	252	732540	fab_06018.png	fab_Kinderwagen.png	fab_Staubsauger.png	ok
65037	08/04/2021 15:18:03	1	35	54844	737468	1	253	735240	740583	1	254	737941	2	568	inorganic	correct	741183	1	255	740640	744115	1	256	743340	3	841	744982	1	256	743340	748064	1	257	746041	3	1979	inorganic	correct	750063	1	258	748740	752013	1	259	751440	3	298	752346	1	259	751440	map_41499.png	map_Globus.png	map_Pfeife.png	ok
65037	08/04/2021 15:18:22	1	36	54844	756928	1	261	756840	759777	1	262	759540	2	472	organic	incorrect	760276	1	262	759540	763342	1	263	762241	2	1256	764625	1	263	762241	767108	1	264	764940	2	1563	organic	correct	768707	1	265	767640	771223	1	266	770341	3	437	771689	1	266	770341	moe_02012.png	moe_Pommes.png	moe_Waschbaer.png	ok
65037	08/04/2021 15:18:45	1	37	54844	775838	1	268	775740	778887	1	269	778440	3	554	inorganic	incorrect	779470	1	269	778440	783719	1	270	781140	3	1151	784902	1	271	783840	788817	1	272	786540	3	1956	inorganic	correct	790800	1	273	789240	794198	1	274	791940	3	539	794765	1	275	794640	maw_04767.png	maw_Schlauchboot.png	maw_Pingpongschlaeger.png	ok
65037	08/04/2021 15:19:03	1	38	54844	798464	1	276	797340	800296	1	277	800040	3	1006	organic	correct	801329	1	277	800040	804512	1	278	802740	4	385	804928	1	278	802740	808394	1	280	808140	3	931	organic	correct	809360	1	280	808140	812642	1	281	810840	4	539	813209	1	281	810840	mog_03090.png	mog_Pilz.png	mog_Fledermaus.png	ok
65037	08/04/2021 15:19:24	1	39	54844	816974	1	283	816240	819740	1	284	818940	2	555	organic	incorrect	820323	1	284	818940	823239	1	285	821640	4	599	823872	1	285	821640	828470	1	287	827040	3	1269	organic	correct	829770	1	288	829740	833119	1	289	832439	2	1564	834718	1	289	832439	fop_00621.png	fop_Mango.png	fop_Koala.png	ok
65037	08/04/2021 15:19:45	1	40	54844	838084	1	291	837840	840966	1	292	840539	2	456	inorganic	correct	841449	1	292	840539	844415	1	293	843240	4	589	845031	1	293	843240	849363	1	295	848639	2	505	inorganic	correct	849896	1	295	848639	854495	1	297	854040	4	490	855011	1	297	854040	fai_07494.png	fai_Kommode.png	fai_Foehn.png	ok
65037	08/04/2021 15:20:05	1	41	54844	859127	1	298	856739	860826	1	299	859440	3	883	organic	correct	861742	1	299	859440	866124	1	301	864839	4	354	866524	1	301	864839	869540	1	302	867540	2	517	organic	correct	870089	1	302	867540	874588	1	304	872939	4	210	874821	1	304	872939	mou_01862.png	mou_Kraehe.png	mou_Croissant.png	ok
65037	08/04/2021 15:20:26	1	42	54844	878603	1	306	878339	882119	1	307	881039	3	604	inorganic	incorrect	882752	1	307	881039	886451	1	308	883740	2	267	886751	1	309	886439	890333	1	310	889139	2	1244	inorganic	correct	891599	1	310	889139	895381	1	312	894539	4	291	895698	1	312	894539	mat_23275.png	mat_Feuerzeug.png	mat_Helm.png	ok
65037	08/04/2021 15:20:47	1	43	54844	900079	1	314	899940	902945	1	315	902639	2	670	inorganic	correct	903645	1	315	902639	907327	1	316	905339	3	258	907610	1	316	905339	910742	1	317	908040	0	0	inorganic	miss	910742	1	319	913440	916224	1	320	916139	2	791	917057	1	320	916139	fal_07906.png	fal_Buegeleisen.png	fal_Korb.png	ok
65037	08/04/2021 15:21:07	1	44	54844	920239	1	321	918839	922905	1	322	921539	2	1049	inorganic	correct	923988	1	322	921539	927037	1	324	926939	2	238	927304	1	324	926939	931002	1	325	929639	2	1651	inorganic	incorrect	932685	1	326	932339	936300	1	327	935039	2	302	936634	1	327	935039	mao_11634.png	mao_Stempel.png	mao_Kegel.png	ok
65037	08/04/2021 15:21:28	1	45	54844	940899	1	329	940439	943748	1	330	943139	3	497	inorganic	incorrect	944281	1	330	943139	948180	1	331	945840	3	266	948480	1	331	945840	953161	1	333	951239	3	2472	inorganic	incorrect	955661	1	334	953940	958443	1	335	956639	2	255	958726	1	335	956639	faw_14215.png	faw_Hufeisen.png	faw_Kuechenmaschine.png	ok
65037	08/04/2021 15:21:47	1	46	54844	962092	1	337	962039	964074	1	337	962039	2	340	inorganic	correct	964458	1	337	962039	967623	1	339	967439	4	1011	968656	1	339	967439	971655	1	340	970139	3	1994	inorganic	correct	973671	1	341	972839	976770	1	342	975539	3	760	977553	1	342	975539	fan_17286.png	fan_Lampe.png	fan_Klavier.png	ok
65037	08/04/2021 15:22:06	1	47	54844	980769	1	343	978239	982685	1	344	980939	2	626	inorganic	correct	983335	1	344	980939	986467	1	346	986339	3	950	987450	1	346	986339	990799	1	347	989039	3	1879	inorganic	correct	992698	1	348	991739	996114	1	349	994439	4	748	996897	1	349	994439	mas_41366.png	mas_Bueroklammer.png	mas_Tisch.png	ok
65037	08/04/2021 15:22:27	1	48	54844	999812	1	350	997139	1003228	1	352	1002539	2	513	organic	incorrect	1003778	1	352	1002539	1006743	1	353	1005239	3	925	1007693	1	353	1005239	1011825	1	355	1010639	3	1490	organic	incorrect	1013358	1	355	1010639	1017107	1	357	1016038	2	1175	1018306	1	357	1016038	fot_00797.png	fot_Taube.png	fot_Salat.png	ok
65037	08/04/2021 15:22:47	1	49	54844	1020439	1	358	1018739	1023838	1	359	1021439	3	786	organic	correct	1024654	1	360	1024138	1027986	1	361	1026839	4	296	1028319	1	361	1026839	1031835	1	362	1029539	2	989	organic	correct	1032851	1	363	1032238	1036233	1	364	1034939	4	681	1036950	1	364	1034939	mot_69770.png	mot_Bison.png	mot_Hotdog.png	ok
65037	08/04/2021 15:23:08	1	50	54844	1040465	1	366	1040338	1043731	1	367	1043039	2	549	inorganic	correct	1044314	1	367	1043039	1048646	1	369	1048438	4	323	1048996	1	369	1048438	1052095	1	370	1051139	2	777	inorganic	correct	1052895	1	370	1051139	1057226	1	372	1056538	4	810	1058059	1	372	1056538	mac_59752.png	mac_Medaille.png	mac_Dartpfeil.png	ok
65037	08/04/2021 15:23:27	1	51	54844	1061292	1	373	1059239	1063008	1	374	1061938	3	1054	inorganic	incorrect	1064107	1	374	1061938	1066707	1	375	1064638	2	789	1067523	1	376	1067339	1071622	1	377	1070038	3	1720	inorganic	correct	1073371	1	378	1072738	1076103	1	379	1075439	4	1651	1077786	1	379	1075439	fax_15310.png	fax_Fahrrad.png	fax_Klebeband.png	ok
65037	08/04/2021 15:23:48	1	52	54844	1080602	1	380	1078138	1082185	1	381	1080838	2	1483	organic	incorrect	1083701	1	382	1083539	1086117	1	382	1083539	2	384	1086533	1	383	1086238	1090998	1	384	1088938	2	972	organic	correct	1091998	1	385	1091639	1096230	1	386	1094338	3	1198	1097463	1	387	1097038	mol_11363.png	mol_Pizza.png	mol_Schimpanse.png	ok
65037	08/04/2021 15:24:09	1	53	54844	1101162	1	388	1099738	1104444	1	389	1102438	3	1317	organic	correct	1105793	1	390	1105138	1109276	1	391	1107838	4	537	1109842	1	391	1107838	1113574	1	393	1113238	3	1073	organic	correct	1114690	1	393	1113238	1118456	1	394	1115938	4	303	1118789	1	395	1118638	fok_09860.png	fok_Palme.png	fok_Kaenguruh.png	ok
65037	08/04/2021 15:24:30	1	54	54844	1122338	1	396	1121338	1125703	1	397	1124038	2	477	inorganic	correct	1126203	1	397	1124038	1130302	1	399	1129438	4	640	1130968	1	399	1129438	1134617	1	400	1132138	3	732	inorganic	correct	1135383	1	401	1134838	1139015	1	402	1137537	4	543	1139582	1	402	1137537	fag_06551.png	fag_Geschenk.png	fag_Portemonnaie.png	ok
65037	08/04/2021 15:24:49	1	55	54844	1143131	1	404	1142938	1145197	1	404	1142938	3	1050	organic	correct	1146280	1	405	1145637	1149529	1	406	1148338	2	257	1149812	1	406	1148338	1153444	1	407	1151038	3	1090	organic	correct	1154560	1	408	1153737	1158925	1	409	1156438	4	324	1159275	1	410	1159138	mob_22833.png	mob_Igel.png	mob_Kiwi.png	ok
65037	08/04/2021 15:25:08	1	56	54844	1162857	1	411	1161837	1164873	1	412	1164538	3	323	organic	correct	1165223	1	412	1164538	1168322	1	413	1167238	4	839	1169189	1	413	1167238	1172388	1	414	1169937	2	404	organic	correct	1172821	1	415	1172638	1177702	1	416	1175338	4	452	1178186	1	417	1178037	foj_08937.png	foj_Rose.png	foj_Waffel.png	ok
65037	08/04/2021 15:25:29	1	57	54844	1182051	1	418	1180738	1184667	1	419	1183437	3	241	organic	correct	1184933	1	419	1183437	1189082	1	421	1188838	3	253	1189365	1	421	1188838	1194214	1	422	1191537	2	611	organic	correct	1194847	1	423	1194237	1199229	1	424	1196938	4	362	1199628	1	424	1196938	mos_23223.png	mos_Traube.png	mos_Eintagsfliege.png	ok
65037	08/04/2021 15:25:49	1	58	54844	1202894	1	426	1202337	1206160	1	427	1205038	3	579	organic	correct	1206776	1	427	1205038	1211041	1	429	1210437	4	632	1211724	1	429	1210437	1214440	1	430	1213138	3	673	organic	correct	1215140	1	430	1213138	1218622	1	432	1218537	4	307	1218955	1	432	1218537	fov_15193.png	fov_Zucchini.png	fov_Fisch.png	ok
65037	08/04/2021 15:26:09	1	59	54844	1222871	1	433	1221238	1224937	1	434	1223937	2	435	inorganic	correct	1225403	1	434	1223937	1229752	1	436	1229337	2	431	1230218	1	436	1229337	1234450	1	437	1232037	2	1037	inorganic	correct	1235516	1	438	1234737	1238065	1	439	1237437	4	995	1239098	1	439	1237437	mau_58144.png	mau_Leiter.png	mau_Wasserventil.png	ok
65037	08/04/2021 15:26:32	1	60	54844	1242714	1	440	1240137	1246096	1	442	1245537	2	1217	inorganic	correct	1247346	1	442	1245537	1251128	1	444	1250937	4	286	1251444	1	444	1250937	1256009	1	445	1253637	3	768	inorganic	correct	1256809	1	446	1256337	1260758	1	447	1259037	4	767	1261574	1	447	1259037	fap_17119.png	fap_Kissen.png	fap_Knopf.png	ok
65037	08/04/2021 15:26:54	1	61	54844	1265723	1	449	1264437	1267922	1	450	1267137	3	602	organic	correct	1268555	1	450	1267137	1272087	1	451	1269837	3	354	1272470	1	451	1269837	1276852	1	453	1275236	2	911	organic	correct	1277785	1	453	1275236	1282084	1	455	1280637	4	270	1282384	1	455	1280637	foi_05187.png	foi_Pflanze.png	foi_Apfelkuchen.png	ok
65037	08/04/2021 15:27:14	1	62	54844	1287232	1	457	1286037	1288965	1	458	1288737	3	814	organic	correct	1289815	1	458	1288737	1293163	1	459	1291437	2	380	1293580	1	459	1291437	1297695	1	461	1296837	3	1106	organic	correct	1298828	1	461	1296837	1302794	1	463	1302237	4	819	1303643	1	463	1302237	fou_18966.png	fou_Schmetterling.png	fou_Feige.png	ok
65037	08/04/2021 15:27:32	1	63	54844	1307659	1	464	1304937	1309258	1	465	1307637	3	630	organic	correct	1309941	1	465	1307637	1312973	1	466	1310337	3	256	1313257	1	467	1313037	1316522	1	468	1315736	3	1029	organic	correct	1317572	1	468	1315736	1321920	1	470	1321136	4	312	1322270	1	470	1321136	mon_69587.png	mon_Kartoffel.png	mon_Fuchs.png	ok
65037	08/04/2021 15:27:52	1	64	54844	1325769	1	471	1323836	1328218	1	472	1326537	2	832	organic	incorrect	1329085	1	472	1326537	1333017	1	474	1331936	4	402	1333450	1	474	1331936	1336815	1	475	1334637	3	1725	organic	correct	1338565	1	476	1337336	1340964	1	477	1340037	2	275	1341264	1	477	1340037	foa_00426.png	foa_Marienkaefer.png	foa_Aubergine.png	ok
65037	08/04/2021 15:28:11	1	65	54844	1345862	1	479	1345436	1347512	1	479	1345436	3	490	organic	correct	1348028	1	479	1345436	1351127	1	481	1350837	4	1109	1352260	1	481	1350837	1355009	1	482	1353536	3	638	organic	correct	1355676	1	482	1353536	1359508	1	484	1358937	4	725	1360274	1	484	1358937	moh_07125.png	moh_Muecke.png	moh_Birne.png	ok
65037	08/04/2021 15:28:34	1	66	54844	1364539	1	486	1364337	1367688	1	487	1367036	2	362	inorganic	correct	1368088	1	487	1367036	1372853	1	489	1372437	4	624	1373503	1	489	1372437	1377618	1	490	1375136	3	839	inorganic	correct	1378485	1	491	1377836	1382683	1	492	1380537	4	292	1383000	1	492	1380537	mal_20552.png	mal_Drucker.png	mal_Kugelschreiber.png	ok
65037	08/04/2021 15:28:55	1	67	54844	1387148	1	494	1385936	1390247	1	495	1388637	3	657	organic	correct	1390931	1	495	1388637	1394346	1	497	1394036	4	738	1395112	1	497	1394036	1398078	1	498	1396737	2	571	organic	correct	1398678	1	498	1396737	1403160	1	500	1402136	4	626	1403810	1	500	1402136	foc_02664.png	foc_Brombeere.png	foc_Eule.png	ok
65037	08/04/2021 15:29:15	1	68	54844	1408358	1	502	1407536	1410874	1	503	1410236	3	609	inorganic	incorrect	1411507	1	503	1410236	1414656	1	504	1412936	3	676	1415356	1	504	1412936	1419887	1	506	1418336	2	1763	inorganic	correct	1421687	1	507	1421036	1425419	1	508	1423736	4	330	1425785	1	508	1423736	faj_07849.png	faj_Parfuem.png	faj_Schuh.png	ok
65037	08/04/2021 15:29:35	1	69	54844	1428818	1	509	1426436	1430984	1	510	1429136	2	378	inorganic	correct	1431384	1	510	1429136	1435232	1	512	1434536	4	282	1435549	1	512	1434536	1438881	1	513	1437236	3	1439	inorganic	correct	1440347	1	514	1439936	1443346	1	515	1442636	4	310	1443679	1	515	1442636	fat_14140.png	fat_Kleiderbuegel.png	fat_Einkaufswagen.png	ok
65037	08/04/2021 15:29:57	1	70	54844	1448428	1	517	1448036	1450994	1	518	1450736	3	530	organic	correct	1451560	1	518	1450736	1456358	1	520	1456136	2	319	1456725	1	520	1456136	1461607	1	522	1461536	3	948	organic	correct	1462590	1	522	1461536	1465439	1	523	1464236	4	685	1466155	1	523	1464236	for_15880.png	for_Seehund.png	for_Mandel.png	ok
65037	08/04/2021 15:30:16	1	71	54844	1470270	1	525	1469636	1473469	1	526	1472336	3	284	organic	correct	1473786	1	526	1472336	1476818	1	527	1475035	2	299	1477151	1	527	1475035	1481867	1	529	1480436	2	1053	organic	correct	1482950	1	529	1480436	1486398	1	531	1485836	3	793	1487215	1	531	1485836	foq_17341.png	foq_Fenchel.png	foq_Pinguin.png	ok
65037	08/04/2021 15:30:37	1	72	54844	1489980	1	531	1485836	1492396	1	532	1491235	2	302	inorganic	correct	1492730	1	532	1491235	1497661	1	534	1496635	4	679	1498378	1	534	1496635	1501143	1	535	1499335	2	867	inorganic	correct	1502043	1	535	1499335	1506425	1	537	1504735	4	299	1506775	1	537	1504735	mai_23761.png	mai_Auto.png	mai_Gewehr.png	ok
65037	08/04/2021 15:30:58	1	73	54844	1510257	1	539	1510136	1513423	1	540	1512836	2	597	inorganic	correct	1514056	1	540	1512836	1517954	1	541	1515535	2	247	1518238	1	541	1515535	1523286	1	543	1520935	3	1123	inorganic	correct	1524436	1	544	1523635	1528034	1	545	1526336	4	281	1528351	1	545	1526336	mae_36426.png	mae_Taschenrechner.png	mae_Schach.png	ok
65037	08/04/2021 15:31:18	1	74	54844	1531666	1	546	1529035	1533549	1	547	1531735	2	892	organic	incorrect	1534465	1	548	1534436	1537448	1	549	1537135	2	941	1538414	1	549	1537135	1542763	1	551	1542536	3	1235	organic	correct	1544029	1	551	1542536	1546945	1	552	1545235	3	277	1547245	1	552	1545235	mom_59641.png	mom_Loewe.png	mom_Ei.png	ok
65037	08/04/2021 15:31:37	1	75	54844	1552093	1	554	1550635	1553776	1	555	1553335	2	380	inorganic	correct	1554192	1	555	1553335	1558441	1	556	1556035	4	823	1559290	1	557	1558735	1562056	1	558	1561435	2	566	inorganic	correct	1562656	1	558	1561435	1566871	1	560	1566835	4	335	1567238	1	560	1566835	fac_02970.png	fac_Haarbuerste.png	fac_Ohrring.png	ok
65037	08/04/2021 15:31:56	1	76	54844	1570637	1	561	1569535	1572586	1	562	1572235	3	550	organic	correct	1573169	1	562	1572235	1576068	1	563	1574935	4	1419	1577518	1	563	1574935	1580767	1	565	1580335	3	1065	organic	correct	1581866	1	565	1580335	1586031	1	567	1585735	4	348	1586415	1	567	1585735	moj_11860.png	moj_Walnuss.png	moj_Blatt.png	ok
65037	08/04/2021 15:32:15	1	77	54844	1589514	1	568	1588434	1592363	1	569	1591135	2	667	inorganic	correct	1593062	1	569	1591135	1597411	1	571	1596534	4	277	1597711	1	571	1596534	1600926	1	572	1599235	3	804	inorganic	correct	1601759	1	572	1599235	1605442	1	574	1604634	4	402	1605891	1	574	1604634	mak_03979.png	mak_Rucksack.png	mak_Socken.png	ok
65037	08/04/2021 15:32:37	1	78	54844	1608940	1	575	1607335	1612206	1	576	1610035	3	586	organic	correct	1612822	1	577	1612734	1616954	1	578	1615435	4	577	1617554	1	578	1615435	1620370	1	579	1618135	2	469	organic	correct	1620870	1	580	1620834	1625818	1	581	1623535	4	916	1626768	1	582	1626235	foe_08514.png	foe_Tannenzapfen.png	foe_Adler.png	ok
65037	08/04/2021 15:32:58	1	79	54844	1630650	1	583	1628934	1633899	1	584	1631635	2	1596	inorganic	correct	1635531	1	585	1634334	1638364	1	586	1637034	4	784	1639180	1	586	1637034	1642679	1	588	1642434	2	439	inorganic	correct	1643146	1	588	1642434	1646961	1	589	1645134	4	458	1647444	1	589	1645134	far_06518.png	far_Heissluftballon.png	far_Giesskanne.png	ok
65037	08/04/2021 15:33:19	1	80	54844	1651593	1	591	1650534	1654275	1	592	1653234	3	1099	organic	correct	1655425	1	592	1653234	1659590	1	594	1658634	4	281	1659907	1	594	1658634	1663022	1	595	1661334	2	571	organic	correct	1663622	1	595	1661334	1668304	1	597	1666734	4	305	1668637	1	597	1666734	mof_06901.png	mof_Hahn.png	mof_Spaghetti.png	ok
65037	08/04/2021 15:33:39	1	81	54844	1672202	1	599	1672135	1674752	1	599	1672135	2	590	inorganic	correct	1675368	1	600	1674834	1678983	1	601	1677535	2	1150	1680166	1	601	1677535	1683499	1	603	1682935	3	1110	inorganic	correct	1684632	1	603	1682935	1688497	1	605	1688335	4	606	1689130	1	605	1688335	maj_01546.png	maj_Krawatte.png	maj_Computermaus.png	ok
65037	08/04/2021 15:33:58	1	82	54844	1692362	1	606	1691034	1694178	1	607	1693734	2	350	organic	incorrect	1694562	1	607	1693734	1698977	1	608	1696434	3	244	1699243	1	609	1699134	1702859	1	610	1701834	3	1098	organic	correct	1704008	1	610	1701834	1707974	1	612	1707234	3	253	1708257	1	612	1707234	moe_23630.png	moe_Waschbaer.png	moe_Pommes.png	ok
65037	08/04/2021 15:34:19	1	83	54844	1711556	1	613	1709934	1714055	1	614	1712634	2	838	inorganic	correct	1714921	1	614	1712634	1719187	1	616	1718034	2	374	1719586	1	616	1718034	1723702	1	618	1723434	2	924	inorganic	correct	1724651	1	618	1723434	1728883	1	620	1728835	3	299	1729217	1	620	1728835	map_49576.png	map_Pfeife.png	map_Globus.png	ok
65037	08/04/2021 15:34:39	1	84	54844	1732282	1	621	1731535	1733882	1	621	1731535	2	1105	inorganic	correct	1735015	1	622	1734235	1738713	1	623	1736935	2	307	1739047	1	623	1736935	1743512	1	625	1742335	2	1067	inorganic	correct	1744611	1	625	1742335	1747344	1	626	1745035	4	294	1747660	1	626	1745035	fab_06286.png	fab_Staubsauger.png	fab_Kinderwagen.png	ok
65037	08/04/2021 15:34:56	1	85	54844	1752459	1	628	1750435	1754208	1	629	1753135	3	839	inorganic	incorrect	1755091	1	629	1753135	1757857	1	630	1755835	2	306	1758190	1	630	1755835	1761339	1	632	1761235	2	955	inorganic	correct	1762322	1	632	1761235	1766521	1	633	1763935	4	527	1767070	1	634	1766635	fai_07637.png	fai_Foehn.png	fai_Kommode.png	ok
65037	08/04/2021 15:35:17	1	86	54844	1769953	1	635	1769335	1772119	1	636	1772034	2	1536	organic	incorrect	1773685	1	636	1772034	1775951	1	637	1774735	2	2129	1778117	1	638	1777435	1780949	1	639	1780134	3	997	organic	correct	1781982	1	639	1780134	1786414	1	641	1785535	4	963	1787414	1	641	1785535	mog_03277.png	mog_Fledermaus.png	mog_Pilz.png	ok
65037	08/04/2021 15:35:36	1	87	54844	1790579	1	642	1788234	1792728	1	643	1790935	3	1778	organic	correct	1794528	1	644	1793635	1796760	1	645	1796334	3	1633	1798427	1	645	1796334	1800809	1	646	1799035	2	1033	organic	correct	1801892	1	647	1801735	1805324	1	648	1804434	3	1036	1806390	1	648	1804434	fop_07937.png	fop_Koala.png	fop_Mango.png	ok
65037	08/04/2021 15:35:58	1	88	54844	1809823	1	649	1807135	1812472	1	650	1809835	3	241	inorganic	incorrect	1812738	1	651	1812534	1817303	1	652	1815235	3	1988	1819319	1	653	1817934	1822535	1	654	1820634	2	1111	inorganic	correct	1823668	1	655	1823335	1826734	1	656	1826034	3	408	1827167	1	656	1826034	maw_22459.png	maw_Pingpongschlaeger.png	maw_Schlauchboot.png	ok
65037	08/04/2021 15:36:17	1	89	54844	1831849	1	658	1831435	1834198	1	659	1834134	3	260	organic	correct	1834481	1	659	1834134	1838496	1	660	1836834	3	962	1839496	1	660	1836834	1842862	1	662	1842234	3	652	organic	correct	1843545	1	662	1842234	1846827	1	663	1844934	4	357	1847210	1	663	1844934	mou_06524.png	mou_Croissant.png	mou_Kraehe.png	ok
65037	08/04/2021 15:36:36	1	90	54844	1851125	1	665	1850334	1852925	1	665	1850334	2	1454	inorganic	correct	1854424	1	666	1853034	1856857	1	667	1855734	3	232	1857123	1	667	1855734	1862088	1	669	1861134	3	1928	inorganic	incorrect	1864038	1	670	1863834	1865837	1	670	1863834	2	1453	1867320	1	671	1866534	fal_07977.png	fal_Korb.png	fal_Buegeleisen.png	ok
65037	08/04/2021 15:36:55	1	91	54844	1869269	1	672	1869234	1871452	1	672	1869234	2	383	inorganic	correct	1871868	1	672	1869234	1875201	1	674	1874634	4	949	1876184	1	674	1874634	1878949	1	675	1877334	2	502	inorganic	correct	1879483	1	675	1877334	1884214	1	677	1882734	4	843	1885081	1	677	1882734	mat_23754.png	mat_Helm.png	mat_Feuerzeug.png	ok
65037	08/04/2021 15:37:14	1	92	54844	1888396	1	679	1888134	1891345	1	680	1890834	2	497	inorganic	correct	1891878	1	680	1890834	1895610	1	681	1893534	2	246	1895894	1	681	1893534	1899642	1	683	1898934	2	1664	inorganic	incorrect	1901358	1	683	1898934	1903658	1	684	1901633	2	373	1904074	1	684	1901633	mao_19000.png	mao_Kegel.png	mao_Stempel.png	ok
65037	08/04/2021 15:37:35	1	93	54844	1907373	1	686	1907034	1910439	1	687	1909733	3	513	inorganic	incorrect	1910989	1	687	1909733	1915304	1	689	1915134	2	358	1915687	1	689	1915134	1919669	1	690	1917833	2	2597	inorganic	correct	1922301	1	691	1920534	1923884	1	692	1923234	3	1235	1925150	1	692	1923234	fan_18894.png	fan_Klavier.png	fan_Lampe.png	ok
65037	08/04/2021 15:37:56	1	94	54844	1928733	1	694	1928634	1931632	1	695	1931334	2	302	organic	incorrect	1931965	1	695	1931334	1935447	1	696	1934033	3	899	1936380	1	696	1934033	1940362	1	698	1939434	3	1252	organic	correct	1941645	1	698	1939434	1944477	1	699	1942133	4	754	1945260	1	700	1944834	fot_06092.png	fot_Salat.png	fot_Taube.png	ok
65037	08/04/2021 15:38:14	1	95	54844	1949209	1	701	1947533	1951025	1	702	1950233	2	419	inorganic	correct	1951492	1	702	1950233	1955007	1	703	1952934	4	719	1955757	1	704	1955633	1959955	1	705	1958333	2	520	inorganic	correct	1960505	1	705	1958333	1963837	1	707	1963733	4	685	1964554	1	707	1963733	mas_41937.png	mas_Tisch.png	mas_Bueroklammer.png	ok
65037	08/04/2021 15:38:34	1	96	54844	1968019	1	708	1966433	1969869	1	709	1969134	3	927	inorganic	incorrect	1970818	1	709	1969134	1974384	1	710	1971833	2	289	1974700	1	711	1974533	1979349	1	712	1977234	3	2125	inorganic	incorrect	1981498	1	713	1979933	1983931	1	714	1982633	2	268	1984231	1	714	1982633	faw_14685.png	faw_Kuechenmaschine.png	faw_Hufeisen.png	ok
