ID	DateTime	Run	Delayed_Retrieval_Trial	First_Pulse_Time	FaceRecog_OnsetTime	FaceRecog_OnsetTimeUncertainty	FaceRecog_fMRI_Pulse	FaceRecog_fMRI_PulseTime	Assoc_Retrieval_OnsetTime	Assoc_Retrieval_OnsetTimeUncertainty	Assoc_Retrieval_fMRI_Pulse	Assoc_Retrieval_fMRI_PulseTime	Assoc_Retrieval_Pressed_Button	Assoc_Retrieval_RT	Assoc_Retrieval_Response_Category	Assoc_Retrieval_Accuracy	Assoc_Retrieval_Feedback_OnsetTime	Assoc_Retrieval_Feedback_OnsetTimeUncertainty	Assoc_Retrieval_Feedback_fMRI_Pulse	Assoc_Retrieval_Feedback_fMRI_PulseTime	Retrieval_consc_Rating_OnsetTime	Retrieval_consc_Rating_OnsetTimeUncertainty	Retrieval_consc_Rating_fMRI_Pulse	Retrieval_consc_Rating_fMRI_PulseTime	Retrieval_consc_Rating_Pressed_Button	Retrieval_consc_Rating_RT	Retrieval_consc_Rating_Feedback_OnsetTime	Retrieval_consc_Rating_Feedback_OnsetTimeUncertainty	Retrieval_consc_Rating_Feedback_fMRI_Pulse	Retrieval_consc_Rating_Feedback_fMRI_PulseTime	ForcedChoice_OnsetTime	ForcedChoice_OnsetTimeUncertainty	ForcedChoice_fMRI_Pulse	ForcedChoice_fMRI_PulseTime	ForcedChoice_Pressed_Button	ForcedChoice_RT	ForcedChoice_Response_Category	ForcedChoice_Accuracy	ForcedChoice_Feedback_OnsetTime	ForcedChoice_Feedback_OnsetTimeUncertainty	ForcedChoice_Feedback_fMRI_Pulse	ForcedChoice_Feedback_fMRI_PulseTime	Recognition_consc_Rating_OnsetTime	Recognition_consc_Rating_OnsetTimeUncertainty	Recognition_consc_Rating_fMRI_Pulse	Recognition_consc_Rating_fMRI_PulseTime	Recognition_consc_Rating_Pressed_Button	Recognition_consc_Rating_RT	Recognition_consc_Rating_Feedback_OnsetTime	Recognition_consc_Rating_Feedback_OnsetTimeUncertainty	Recognition_consc_Rating_Feedback_fMRI_Pulse	Recognition_consc_Rating_Feedback_fMRI_PulseTime	Presented_Person	Presented_Target	Presented_Lure	TrialStatus
65672	08/18/2021 14:25:09	1	1	56291	70742	1	6	69789	72875	1	7	72491	3	1591	organic	correct	74491	1	7	72491	77723	1	8	75191	4	1564	79323	1	9	77891	82605	1	10	80591	2	1982	organic	correct	84621	1	11	83291	86570	1	12	85991	3	1254	87853	1	12	85991	foc_02157.png	foc_Eule.png	foc_Brombeere.png	ok
65672	08/18/2021 14:25:30	1	2	56291	91668	1	14	91391	93851	1	14	91391	2	694	organic	incorrect	94567	1	15	94091	98899	1	16	96791	3	393	99316	1	16	96791	103215	1	18	102191	3	2818	organic	correct	106064	1	19	104891	107413	1	19	104891	3	2582	110029	1	20	107591	foi_03389.png	foi_Pflanze.png	foi_Apfelkuchen.png	ok
65672	08/18/2021 14:25:51	1	3	56291	112545	1	21	110291	115444	1	22	112991	2	1089	inorganic	correct	116560	1	23	115691	118793	1	24	118391	3	874	119709	1	24	118391	124157	1	26	123791	3	2207	inorganic	incorrect	126390	1	26	123791	129522	1	28	129191	3	499	130055	1	28	129191	maj_01545.png	maj_Krawatte.png	maj_Computermaus.png	ok
65672	08/18/2021 14:26:09	1	4	56291	134004	1	29	131891	136803	1	30	134591	3	689	organic	correct	137520	1	31	137290	140652	1	32	139990	3	480	141168	1	32	139990	144051	1	33	142690	3	1402	organic	correct	145484	1	34	145390	147699	1	34	145390	4	1257	148982	1	35	148090	fop_00621.png	fop_Koala.png	fop_Mango.png	ok
65672	08/18/2021 14:26:31	1	5	56291	152198	1	36	150790	154630	1	37	153490	2	488	inorganic	correct	155147	1	37	153490	159329	1	39	158890	3	290	159645	1	39	158890	163377	1	40	161590	2	1093	inorganic	correct	164494	1	41	164290	168776	1	42	166990	4	787	169609	1	42	166990	mau_49693.png	mau_Wasserventil.png	mau_Leiter.png	ok
65672	08/18/2021 14:26:50	1	6	56291	173991	1	44	172390	175773	1	45	175090	3	1371	inorganic	incorrect	177173	1	45	175090	179872	1	46	177790	3	303	180205	1	46	177790	184420	1	48	183190	3	2316	inorganic	correct	186770	1	49	185890	188119	1	49	185890	3	592	188736	1	50	188590	mae_01010.png	mae_Schach.png	mae_Taschenrechner.png	ok
65672	08/18/2021 14:27:08	1	7	56291	192917	1	51	191290	195150	1	52	193990	2	328	organic	incorrect	195500	1	52	193990	199565	1	54	199390	3	228	199815	1	54	199390	203847	1	55	202090	3	1610	organic	incorrect	205480	1	56	204790	207663	1	57	207490	3	684	208379	1	57	207490	mou_01862.png	mou_Croissant.png	mou_Kraehe.png	ok
65672	08/18/2021 14:27:28	1	8	56291	211111	1	58	210190	212844	1	58	210190	2	1861	organic	incorrect	214727	1	59	212890	216360	1	60	215590	2	712	217109	1	60	215590	221658	1	62	220990	2	1719	organic	correct	223407	1	62	220990	226423	1	64	226390	3	354	226806	1	64	226390	moh_06446.png	moh_Muecke.png	moh_Birne.png	ok
65672	08/18/2021 14:27:48	1	9	56291	230788	1	65	229090	232904	1	66	231790	3	667	inorganic	incorrect	233604	1	66	231790	236353	1	67	234490	3	1361	237736	1	68	237190	241251	1	69	239890	2	2185	inorganic	correct	243467	1	70	242590	246799	1	71	245290	3	348	247182	1	71	245290	mak_00987.png	mak_Socken.png	mak_Rucksack.png	ok
65672	08/18/2021 14:28:09	1	10	56291	251164	1	73	250690	252980	1	73	250690	3	806	organic	correct	253814	1	74	253390	257479	1	75	256090	4	726	258229	1	75	256090	262494	1	77	261490	3	1592	organic	correct	264110	1	77	261490	266992	1	79	266889	4	761	267792	2	79	266889	foq_16799.png	foq_Pinguin.png	foq_Fenchel.png	ok
65672	08/18/2021 14:28:29	1	11	56291	271424	1	80	269589	273307	1	81	272289	3	984	inorganic	incorrect	274323	1	81	272289	278355	1	83	277689	4	400	278788	1	83	277689	283104	1	84	280389	2	1543	inorganic	correct	284670	1	85	283089	287336	1	86	285789	4	355	287719	1	86	285789	fag_06539.png	fag_Geschenk.png	fag_Portemonnaie.png	ok
65672	08/18/2021 14:28:50	1	12	56291	291601	1	88	291189	294283	1	89	293889	2	337	organic	incorrect	294650	1	89	293889	297782	1	90	296589	2	334	298149	1	90	296589	303080	1	92	301989	3	2432	organic	correct	305546	1	93	304689	307145	1	93	304689	2	1445	308628	1	94	307389	mol_07679.png	mol_Pizza.png	mol_Schimpanse.png	ok
65672	08/18/2021 14:29:09	1	13	56291	312427	1	95	310089	315326	1	96	312789	2	1257	organic	incorrect	316626	1	97	315489	319075	1	98	318189	3	447	319575	1	98	318189	323423	1	99	320889	3	1552	organic	correct	325006	1	100	323589	328871	1	101	326289	3	328	329221	1	102	328989	mot_69374.png	mot_Bison.png	mot_Hotdog.png	ok
65672	08/18/2021 14:29:29	1	14	56291	332220	1	103	331689	334869	1	104	334389	2	1397	inorganic	correct	336302	1	104	334389	338685	1	105	337089	4	322	339035	1	105	337089	343700	1	107	342489	3	1864	inorganic	correct	345599	1	108	345189	347865	1	108	345189	3	500	348398	1	109	347889	fat_12032.png	fat_Kleiderbuegel.png	fat_Einkaufswagen.png	ok
65672	08/18/2021 14:29:49	1	15	56291	351897	1	110	350589	354113	1	111	353289	2	2203	organic	incorrect	356346	1	112	355989	358511	1	112	355989	3	256	358795	1	113	358689	362460	1	114	361389	2	2603	organic	incorrect	365093	1	115	364089	368058	1	116	366789	3	965	369075	1	116	366789	mom_59361.png	mom_Ei.png	mom_Loewe.png	ok
65672	08/18/2021 14:30:09	1	16	56291	371657	1	117	369489	374906	1	118	372189	3	339	inorganic	incorrect	375272	1	119	374889	378905	1	120	377589	3	319	379254	1	120	377589	382303	1	121	380289	3	1912	inorganic	correct	384236	1	122	382989	387002	1	123	385688	4	344	387368	1	123	385688	fab_06018.png	fab_Staubsauger.png	fab_Kinderwagen.png	ok
65672	08/18/2021 14:30:31	1	17	56291	392300	1	125	391088	394633	1	126	393788	2	1186	inorganic	correct	395849	1	126	393788	399764	1	128	399188	2	330	400131	1	128	399188	404579	1	129	401888	2	1505	inorganic	correct	406112	1	130	404588	409211	1	131	407288	3	814	410061	1	132	409988	mao_11634.png	mao_Kegel.png	mao_Stempel.png	ok
65672	08/18/2021 14:30:49	1	18	56291	413909	1	133	412688	415875	1	134	415388	3	512	organic	correct	416442	1	134	415388	420291	1	135	418088	4	320	420640	1	135	418088	423639	1	137	423488	3	1894	organic	correct	425555	1	137	423488	428754	1	138	426188	4	371	429154	1	139	428888	for_15187.png	for_Seehund.png	for_Mandel.png	ok
65672	08/18/2021 14:31:10	1	19	56291	432253	1	140	431588	434619	1	141	434288	3	733	inorganic	incorrect	435385	1	141	434288	439667	1	142	436988	4	348	440050	1	143	439688	444599	1	144	442388	3	2403	inorganic	correct	447031	1	145	445088	448414	1	146	447788	3	654	449097	1	146	447788	fax_14883.png	fax_Klebeband.png	fax_Fahrrad.png	ok
65672	08/18/2021 14:31:31	1	20	56291	453079	1	147	450488	455978	1	149	455888	3	462	organic	correct	456478	1	149	455888	461177	1	150	458588	3	345	461543	1	151	461288	466142	1	152	463988	3	2030	organic	correct	468224	1	153	466688	470657	1	154	469388	4	418	471107	1	154	469388	fou_17118.png	fou_Schmetterling.png	fou_Feige.png	ok
65672	08/18/2021 14:31:51	1	21	56291	474122	1	155	472088	475822	1	156	474788	2	737	organic	incorrect	476588	1	156	474788	480703	1	158	480188	3	289	481020	1	158	480188	485502	1	159	482888	3	2404	organic	incorrect	487934	1	160	485588	489767	1	161	488288	3	954	490750	1	161	488288	fov_15046.png	fov_Zucchini.png	fov_Fisch.png	ok
65672	08/18/2021 14:32:13	1	22	56291	493432	1	162	490988	496265	1	163	493688	3	318	inorganic	incorrect	496615	1	164	496388	500547	1	165	499088	3	366	500947	1	165	499088	505795	1	167	504488	2	1638	inorganic	correct	507461	1	168	507188	510293	1	169	509888	4	423	510743	1	169	509888	far_00736.png	far_Giesskanne.png	far_Heissluftballon.png	ok
65672	08/18/2021 14:32:33	1	23	56291	515475	1	171	515287	517941	1	171	515287	2	378	inorganic	correct	518341	1	172	517987	522123	1	173	520687	3	297	522456	1	173	520687	527204	1	175	526087	2	1104	inorganic	correct	528337	1	175	526087	532236	1	177	531487	4	384	532652	1	177	531487	mac_59169.png	mac_Medaille.png	mac_Dartpfeil.png	ok
65672	08/18/2021 14:32:52	1	24	56291	535885	1	178	534187	538600	1	179	536887	3	299	inorganic	incorrect	538934	1	179	536887	543266	1	181	542287	3	244	543532	1	181	542287	547064	1	182	544987	3	1883	inorganic	correct	548980	1	183	547687	551163	1	184	550387	4	511	551713	1	184	550387	map_41499.png	map_Globus.png	map_Pfeife.png	ok
65672	08/18/2021 14:33:14	1	25	56291	555261	1	185	553087	557694	1	186	555787	2	1120	organic	incorrect	558844	1	187	558487	562009	1	188	561187	2	416	562476	1	188	561187	567274	1	190	566587	3	1591	organic	correct	568890	1	190	566587	571973	1	191	569287	3	554	572556	1	192	571987	moj_11821.png	moj_Blatt.png	moj_Walnuss.png	ok
65672	08/18/2021 14:33:33	1	26	56291	576471	1	193	574687	580020	1	194	577387	3	556	organic	correct	580603	1	195	580087	583602	1	196	582787	2	425	584052	1	196	582787	587267	1	197	585487	2	2508	organic	incorrect	589800	1	198	588187	592649	1	199	590887	3	513	593199	1	199	590887	mof_02408.png	mof_Spaghetti.png	mof_Hahn.png	ok
65672	08/18/2021 14:33:53	1	27	56291	596164	1	200	593587	598830	1	201	596287	3	538	organic	correct	599397	1	202	598987	602962	1	203	601687	3	867	603862	1	203	601687	606328	1	204	604387	2	2471	organic	correct	608827	1	205	607087	611726	1	206	609787	4	499	612292	1	206	609787	fok_09378.png	fok_Palme.png	fok_Kaenguruh.png	ok
65672	08/18/2021 14:34:14	1	28	56291	615708	1	208	615187	618840	1	209	617887	3	393	inorganic	incorrect	619256	1	209	617887	623205	1	210	620587	4	1291	624521	1	211	623287	627237	1	212	625987	0	0	inorganic	miss	627237	1	213	628687	632535	1	214	631387	2	475	633035	1	214	631387	fai_07494.png	fai_Kommode.png	fai_Foehn.png	ok
65672	08/18/2021 14:34:35	1	29	56291	636701	1	215	634087	639716	1	217	639487	2	476	organic	incorrect	640216	1	217	639487	644398	1	218	642187	3	229	644665	1	218	642187	649396	1	220	647586	2	1763	organic	incorrect	651196	1	221	650287	653628	1	222	652986	3	596	654261	1	222	652986	moe_02012.png	moe_Pommes.png	moe_Waschbaer.png	ok
65672	08/18/2021 14:34:53	1	30	56291	657410	1	223	655687	659293	1	224	658387	2	769	organic	incorrect	660093	1	224	658387	662825	1	225	661087	3	519	663392	1	225	661087	667757	1	227	666487	3	1921	organic	correct	669706	1	228	669187	672039	1	229	671887	2	917	672988	1	229	671887	mos_20953.png	mos_Eintagsfliege.png	mos_Traube.png	ok
65672	08/18/2021 14:35:11	1	31	56291	675671	1	230	674587	677503	1	231	677287	3	1046	organic	correct	678586	1	231	677287	681052	1	232	679987	2	411	681485	1	232	679987	684801	1	233	682687	3	2068	organic	correct	686900	1	234	685387	688666	1	235	688087	3	345	689033	1	235	688087	mon_65798.png	mon_Fuchs.png	mon_Kartoffel.png	ok
65672	08/18/2021 14:35:31	1	32	56291	693681	1	237	693487	696031	1	237	693487	3	493	inorganic	incorrect	696547	1	238	696187	699713	1	239	698887	3	968	700712	1	239	698887	704528	1	241	704287	3	1335	inorganic	correct	705894	1	241	704287	709243	1	242	706987	3	260	709526	1	242	706987	fal_07906.png	fal_Buegeleisen.png	fal_Korb.png	ok
65672	08/18/2021 14:35:52	1	33	56291	714158	1	244	712387	717440	1	245	715087	3	440	organic	correct	717906	1	246	717787	720872	1	247	720487	4	832	721738	1	247	720487	725820	1	248	723187	2	579	organic	correct	726420	1	249	725887	730669	1	250	728587	4	717	731419	1	251	731287	fot_00797.png	fot_Salat.png	fot_Taube.png	ok
65672	08/18/2021 14:36:12	1	34	56291	734751	1	252	733987	737983	1	253	736687	3	449	inorganic	incorrect	738466	1	253	736687	741715	1	254	739387	3	307	742048	1	254	739387	745580	1	256	744787	2	977	inorganic	correct	746580	1	256	744787	750962	1	258	750187	4	332	751328	1	258	750187	fac_02146.png	fac_Ohrring.png	fac_Haarbuerste.png	ok
65672	08/18/2021 14:36:33	1	35	56291	754511	1	259	752887	756893	1	260	755586	2	974	inorganic	correct	757893	1	260	755586	761358	1	262	760986	3	572	761975	1	262	760986	766657	1	264	766386	2	1456	inorganic	correct	768139	1	264	766386	771655	1	265	769086	3	277	771955	1	266	771786	faw_14215.png	faw_Hufeisen.png	faw_Kuechenmaschine.png	ok
65672	08/18/2021 14:36:50	1	36	56291	775654	1	267	774486	777386	1	268	777186	3	1085	organic	correct	778503	1	268	777186	781052	1	269	779886	3	365	781452	1	269	779886	784667	1	270	782586	2	1391	organic	correct	786083	1	271	785286	788949	1	272	787986	3	205	789182	1	272	787986	mob_00760.png	mob_Igel.png	mob_Kiwi.png	ok
65672	08/18/2021 14:37:08	1	37	56291	793064	1	273	790686	794797	1	274	793386	2	392	inorganic	correct	795214	1	274	793386	798363	1	275	796086	3	429	798829	1	276	798786	802028	1	277	801486	3	1066	inorganic	correct	803128	1	277	801486	805693	1	278	804186	3	525	806243	1	278	804186	faj_07783.png	faj_Schuh.png	faj_Parfuem.png	ok
65672	08/18/2021 14:37:30	1	38	56291	810742	1	280	809586	814190	1	281	812286	3	156	organic	correct	814374	1	281	812286	818339	1	283	817686	3	459	818822	1	283	817686	822621	1	284	820386	2	1400	organic	incorrect	824054	1	285	823086	827603	1	286	825786	2	562	828202	1	286	825786	foa_00207.png	foa_Marienkaefer.png	foa_Aubergine.png	ok
65672	08/18/2021 14:37:51	1	39	56291	832568	1	288	831186	836000	1	289	833886	2	271	inorganic	correct	836300	1	289	833886	840881	1	291	839286	3	274	841181	1	291	839286	844747	1	293	844686	2	1414	inorganic	correct	846196	1	293	844686	849579	1	294	847386	4	292	849895	1	294	847386	fap_16329.png	fap_Knopf.png	fap_Kissen.png	ok
65672	08/18/2021 14:38:12	1	40	56291	854377	1	296	852786	857842	1	297	855486	3	737	organic	correct	858625	1	298	858186	861325	1	299	860886	3	366	861741	1	299	860886	864840	1	300	863586	2	1546	organic	incorrect	866406	1	301	866286	869622	1	302	868986	3	234	869888	1	302	868986	foj_08220.png	foj_Rose.png	foj_Waffel.png	ok
65672	08/18/2021 14:38:32	1	41	56291	874487	1	304	874386	877802	1	305	877086	3	763	inorganic	incorrect	878602	1	305	877086	881351	1	306	879785	3	559	881934	1	306	879785	885083	1	307	882485	3	1441	inorganic	correct	886549	1	308	885185	890615	1	309	887885	4	288	890931	1	310	890585	mas_41366.png	mas_Tisch.png	mas_Bueroklammer.png	ok
65672	08/18/2021 14:38:55	1	42	56291	895013	1	311	893285	897812	1	312	895985	2	413	inorganic	correct	898262	1	312	895985	902661	1	314	901385	3	982	903677	1	314	901385	906842	1	316	906785	3	2626	inorganic	incorrect	909508	1	316	906785	912191	1	317	909485	2	343	912557	1	318	912185	mat_23275.png	mat_Feuerzeug.png	mat_Helm.png	ok
65672	08/18/2021 14:39:14	1	43	56291	917389	1	319	914885	919155	1	320	917585	2	1034	organic	incorrect	920221	1	320	917585	923254	1	322	922985	3	622	923903	1	322	922985	927552	1	323	925685	3	1678	organic	incorrect	929252	1	324	928385	932817	1	325	931085	3	350	933200	1	325	931085	foe_08236.png	foe_Adler.png	foe_Tannenzapfen.png	ok
65672	08/18/2021 14:39:33	1	44	56291	936799	1	327	936485	938515	1	327	936485	3	1127	inorganic	incorrect	939665	1	328	939185	943047	1	329	941885	3	325	943397	1	329	941885	947462	1	331	947285	2	1428	inorganic	correct	948912	1	331	947285	952094	1	332	949985	3	418	952544	1	332	949985	mai_06530.png	mai_Auto.png	mai_Gewehr.png	ok
65672	08/18/2021 14:39:52	1	45	56291	956042	1	334	955385	959358	1	335	958085	2	539	inorganic	correct	959941	1	335	958085	963040	1	336	960785	3	409	963473	1	336	960785	966506	1	338	966185	3	1826	inorganic	incorrect	968355	1	338	966185	970638	1	339	968885	3	1470	972137	1	340	971585	maw_04767.png	maw_Schlauchboot.png	maw_Pingpongschlaeger.png	ok
65672	08/18/2021 14:40:10	1	46	56291	974803	1	341	974285	977235	1	342	976985	3	359	inorganic	incorrect	977619	1	342	976985	980651	1	343	979685	3	335	981017	1	343	979685	984899	1	344	982385	3	1703	inorganic	correct	986632	1	345	985085	989181	1	346	987785	3	657	989864	1	346	987785	mal_04470.png	mal_Drucker.png	mal_Kugelschreiber.png	ok
65672	08/18/2021 14:40:27	1	47	56291	992847	1	347	990485	995529	1	348	993185	2	671	inorganic	correct	996229	1	349	995884	999911	1	350	998584	0	0	999911	1	350	998584	1001577	1	351	1001284	3	1353	inorganic	correct	1002960	1	351	1001284	1005726	1	352	1003984	3	366	1006126	1	352	1003984	fan_17286.png	fan_Lampe.png	fan_Klavier.png	ok
65672	08/18/2021 14:40:50	1	48	56291	1010274	1	354	1009384	1012973	1	355	1012084	3	334	organic	correct	1013340	1	355	1012084	1018288	1	357	1017484	3	370	1018688	1	357	1017484	1023103	1	359	1022884	3	1553	organic	correct	1024686	1	359	1022884	1028435	1	361	1028284	4	884	1029351	1	361	1028284	mog_03090.png	mog_Fledermaus.png	mog_Pilz.png	ok
65672	08/18/2021 14:41:11	1	49	56291	1033016	1	362	1030984	1034866	1	363	1033684	2	1085	organic	incorrect	1035982	1	363	1033684	1040064	1	365	1039084	2	307	1040397	1	365	1039084	1043629	1	366	1041784	2	1545	organic	incorrect	1045196	1	367	1044484	1048728	1	368	1047184	3	297	1049061	1	368	1047184	foi_05187.png	foi_Apfelkuchen.png	foi_Pflanze.png	ok
65672	08/18/2021 14:41:28	1	50	56291	1053393	1	370	1052584	1055542	1	371	1055284	3	293	organic	correct	1055875	1	371	1055284	1058991	1	372	1057984	3	463	1059507	1	372	1057984	1062406	1	373	1060684	2	1266	organic	correct	1063706	1	374	1063384	1066688	1	375	1066084	4	323	1067038	1	375	1066084	fop_07937.png	fop_Mango.png	fop_Koala.png	ok
65672	08/18/2021 14:41:48	1	51	56291	1070570	1	376	1068784	1073869	1	377	1071484	2	425	organic	incorrect	1074319	1	378	1074184	1079034	1	379	1076884	2	420	1079484	1	379	1076884	1082950	1	381	1082284	3	1930	organic	correct	1084916	1	381	1082284	1087065	1	382	1084984	4	401	1087498	1	382	1084984	foc_02664.png	foc_Brombeere.png	foc_Eule.png	ok
65672	08/18/2021 14:42:06	1	52	56291	1090647	1	384	1090384	1092780	1	384	1090384	2	1212	inorganic	correct	1094012	1	385	1093084	1096345	1	386	1095784	2	335	1096712	1	386	1095784	1099760	1	387	1098484	3	1457	inorganic	incorrect	1101243	1	388	1101184	1103726	1	388	1101184	2	364	1104126	1	389	1103884	maj_01546.png	maj_Computermaus.png	maj_Krawatte.png	ok
65672	08/18/2021 14:42:26	1	53	56291	1108941	1	390	1106584	1111040	1	391	1109284	3	860	organic	correct	1111923	1	391	1109284	1114755	1	393	1114684	3	755	1115538	1	393	1114684	1118321	1	394	1117383	3	1304	organic	correct	1119654	1	394	1117383	1123736	1	396	1122783	3	255	1124019	1	396	1122783	moh_07125.png	moh_Birne.png	moh_Muecke.png	ok
65672	08/18/2021 14:42:45	1	54	56291	1128401	1	398	1128183	1130583	1	398	1128183	2	534	organic	incorrect	1131150	1	399	1130883	1134732	1	400	1133583	2	789	1135548	1	400	1133583	1139047	1	402	1138983	3	1703	organic	correct	1140780	1	402	1138983	1144312	1	403	1141683	3	660	1144995	1	404	1144383	mou_06524.png	mou_Kraehe.png	mou_Croissant.png	ok
65672	08/18/2021 14:43:04	1	55	56291	1147844	1	405	1147083	1150110	1	406	1149783	2	485	inorganic	correct	1150627	1	406	1149783	1154175	1	407	1152483	2	739	1154958	1	407	1152483	1157907	1	408	1155183	2	1733	inorganic	correct	1159674	1	409	1157883	1162639	1	410	1160583	3	248	1162922	1	410	1160583	mau_58144.png	mau_Leiter.png	mau_Wasserventil.png	ok
65672	08/18/2021 14:43:23	1	56	56291	1166455	1	412	1165983	1168621	1	412	1165983	2	1428	inorganic	correct	1170070	1	413	1168683	1172902	1	414	1171383	3	572	1173502	1	414	1171383	1176618	1	415	1174083	3	1351	inorganic	incorrect	1178001	1	416	1176783	1181999	1	417	1179483	3	382	1182416	1	418	1182183	mae_36426.png	mae_Taschenrechner.png	mae_Schach.png	ok
65672	08/18/2021 14:43:42	1	57	56291	1186215	1	419	1184883	1188364	1	420	1187583	3	1186	inorganic	incorrect	1189580	1	420	1187583	1192279	1	421	1190283	4	435	1192746	1	421	1190283	1196428	1	423	1195683	3	1614	inorganic	correct	1198077	1	423	1195683	1200260	1	424	1198383	3	1330	1201626	1	425	1201083	fag_06551.png	fag_Portemonnaie.png	fag_Geschenk.png	ok
65672	08/18/2021 14:44:02	1	58	56291	1204442	1	426	1203783	1206274	1	426	1203783	3	1182	organic	correct	1207507	1	427	1206483	1211106	1	428	1209183	3	207	1211339	1	428	1209183	1215338	1	430	1214583	2	1323	organic	correct	1216688	1	430	1214583	1220420	1	432	1219983	3	289	1220736	1	432	1219983	foq_17341.png	foq_Fenchel.png	foq_Pinguin.png	ok
65672	08/18/2021 14:44:22	1	59	56291	1224418	1	433	1222683	1227517	1	434	1225383	2	958	organic	incorrect	1228500	1	435	1228083	1230849	1	436	1230783	3	375	1231249	1	436	1230783	1235781	1	437	1233483	2	1249	organic	correct	1237064	1	438	1236183	1239913	1	439	1238882	4	464	1240413	1	439	1238882	mol_11363.png	mol_Schimpanse.png	mol_Pizza.png	ok
65672	08/18/2021 14:44:44	1	60	56291	1245161	1	441	1244282	1246861	1	441	1244282	3	589	inorganic	incorrect	1247477	1	442	1246982	1251776	1	443	1249682	3	774	1252575	1	444	1252382	1256841	1	445	1255082	3	1522	inorganic	correct	1258390	1	446	1257782	1262089	1	447	1260482	4	563	1262689	1	447	1260482	mak_03979.png	mak_Rucksack.png	mak_Socken.png	ok
65672	08/18/2021 14:45:04	1	61	56291	1266671	1	449	1265882	1269453	1	450	1268582	3	312	inorganic	incorrect	1269803	1	450	1268582	1273718	1	451	1271282	3	395	1274135	1	452	1273982	1278100	1	453	1276682	3	1830	inorganic	correct	1279966	1	454	1279381	1282549	1	455	1282082	3	533	1283115	1	455	1282082	fab_06286.png	fab_Kinderwagen.png	fab_Staubsauger.png	ok
65672	08/18/2021 14:45:22	1	62	56291	1286531	1	456	1284782	1288563	1	457	1287482	3	572	inorganic	incorrect	1289163	1	457	1287482	1293228	1	459	1292882	3	679	1293945	1	459	1292882	1297777	1	460	1295582	2	1314	inorganic	correct	1299126	1	461	1298282	1301492	1	462	1300981	3	323	1301842	1	462	1300981	fat_14140.png	fat_Einkaufswagen.png	fat_Kleiderbuegel.png	ok
65672	08/18/2021 14:45:43	1	63	56291	1305274	1	463	1303682	1308090	1	464	1306382	2	266	organic	incorrect	1308390	1	464	1306382	1311639	1	465	1309081	2	487	1312155	1	466	1311782	1316470	1	467	1314482	2	1898	organic	incorrect	1318403	1	468	1317181	1321319	1	469	1319882	3	728	1322085	1	469	1319882	mom_59641.png	mom_Loewe.png	mom_Ei.png	ok
65672	08/18/2021 14:46:05	1	64	56291	1326200	1	471	1325283	1329199	1	472	1327983	3	261	organic	correct	1329483	1	472	1327983	1334131	1	474	1333382	2	461	1334614	1	474	1333382	1338263	1	475	1336082	2	1458	organic	correct	1339746	1	476	1338783	1343461	1	477	1341482	3	249	1343745	1	477	1341482	mot_69770.png	mot_Hotdog.png	mot_Bison.png	ok
65672	08/18/2021 14:46:26	1	65	56291	1347777	1	479	1346882	1351109	1	480	1349582	2	589	inorganic	correct	1351759	1	480	1349582	1355657	1	482	1354982	2	799	1356490	1	482	1354982	1360755	1	484	1360382	2	1156	inorganic	correct	1361938	1	484	1360382	1364971	1	485	1363081	3	736	1365737	1	485	1363081	mao_19000.png	mao_Stempel.png	mao_Kegel.png	ok
65672	08/18/2021 14:46:46	1	66	56291	1368586	1	487	1368481	1371718	1	488	1371182	3	217	inorganic	incorrect	1371968	1	488	1371182	1376417	1	489	1373882	4	526	1376967	1	490	1376581	1380099	1	491	1379281	3	2290	inorganic	incorrect	1382415	1	492	1381981	1384847	1	493	1384681	3	360	1385231	1	493	1384681	fax_15310.png	fax_Fahrrad.png	fax_Klebeband.png	ok
65672	08/18/2021 14:47:06	1	67	56291	1388446	1	494	1387382	1391462	1	495	1390082	3	276	organic	correct	1391762	1	495	1390082	1396143	1	497	1395481	3	300	1396477	1	497	1395481	1400375	1	498	1398181	3	1623	organic	correct	1402041	1	499	1400881	1404841	1	500	1403581	3	314	1405207	1	500	1403581	fou_18966.png	fou_Feige.png	fou_Schmetterling.png	ok
65672	08/18/2021 14:47:25	1	68	56291	1408673	1	501	1406281	1411888	1	503	1411681	3	220	organic	correct	1412138	1	503	1411681	1415237	1	504	1414381	3	337	1415604	1	504	1414381	1418836	1	505	1417081	2	1647	organic	correct	1420519	1	506	1419781	1424334	1	507	1422481	3	294	1424650	1	507	1422481	for_15880.png	for_Mandel.png	for_Seehund.png	ok
65672	08/18/2021 14:47:45	1	69	56291	1428366	1	509	1427881	1430282	1	509	1427881	3	791	inorganic	incorrect	1431098	1	510	1430581	1434847	1	511	1433282	4	334	1435214	1	511	1433282	1440095	1	513	1438681	2	2740	inorganic	correct	1442861	1	514	1441381	1443911	1	514	1441381	3	818	1444760	1	515	1444081	far_06518.png	far_Heissluftballon.png	far_Giesskanne.png	ok
65672	08/18/2021 14:48:06	1	70	56291	1448076	1	516	1446781	1450892	1	517	1449481	2	216	organic	incorrect	1451158	1	517	1449481	1454340	1	518	1452181	3	632	1455007	1	519	1454881	1459522	1	520	1457581	2	2536	organic	correct	1462088	1	521	1460281	1463954	1	522	1462981	3	301	1464287	1	522	1462981	fov_15193.png	fov_Fisch.png	fov_Zucchini.png	ok
65672	08/18/2021 14:48:30	1	71	56291	1469169	1	524	1468381	1472701	1	525	1471081	3	440	inorganic	incorrect	1473167	1	525	1471081	1477866	1	527	1476481	3	319	1478216	1	527	1476481	1482981	1	529	1481880	3	1158	inorganic	correct	1484164	1	529	1481880	1487812	1	531	1487280	3	579	1488429	1	531	1487280	mac_59752.png	mac_Dartpfeil.png	mac_Medaille.png	ok
65672	08/18/2021 14:48:51	1	72	56291	1493127	1	533	1492680	1494977	1	533	1492680	3	1469	inorganic	incorrect	1496476	1	534	1495380	1499942	1	535	1498080	3	1408	1501391	1	536	1500780	1504374	1	537	1503480	2	1513	inorganic	correct	1505923	1	537	1503480	1509555	1	539	1508880	3	222	1509805	1	539	1508880	map_49576.png	map_Pfeife.png	map_Globus.png	ok
65672	08/18/2021 14:49:10	1	73	56291	1513970	1	540	1511580	1515586	1	541	1514280	2	329	inorganic	correct	1515936	1	541	1514280	1519119	1	542	1516980	3	660	1519802	1	543	1519680	1524300	1	544	1522380	3	578	inorganic	correct	1524900	1	544	1522380	1529148	1	546	1527780	4	347	1529532	1	546	1527780	fai_07637.png	fai_Foehn.png	fai_Kommode.png	ok
65672	08/18/2021 14:49:30	1	74	56291	1533247	1	548	1533180	1536746	1	549	1535880	3	966	organic	correct	1537746	1	549	1535880	1541811	1	551	1541280	3	1094	1542927	1	551	1541280	1545393	1	552	1543980	2	1701	organic	correct	1547126	1	553	1546680	1549292	1	553	1546680	4	553	1549891	1	554	1549380	fok_09860.png	fok_Kaenguruh.png	fok_Palme.png	ok
65672	08/18/2021 14:49:51	1	75	56291	1552907	1	555	1552080	1555140	1	556	1554780	2	1238	organic	incorrect	1556406	1	556	1554780	1559588	1	557	1557480	3	649	1560271	1	558	1560180	1564570	1	559	1562880	3	1828	organic	correct	1566419	1	560	1565580	1569085	1	561	1568280	4	728	1569835	1	561	1568280	mof_06901.png	mof_Hahn.png	mof_Spaghetti.png	ok
65672	08/18/2021 14:50:11	1	76	56291	1574150	1	563	1573680	1576849	1	564	1576380	3	974	organic	correct	1577849	1	564	1576380	1581881	1	566	1581780	3	263	1582180	1	566	1581780	1585779	1	567	1584480	3	1753	organic	correct	1587562	1	568	1587180	1589378	1	568	1587180	3	637	1590045	1	569	1589880	moj_11860.png	moj_Walnuss.png	moj_Blatt.png	ok
65672	08/18/2021 14:50:31	1	77	56291	1593660	1	570	1592580	1596809	1	571	1595280	2	344	inorganic	correct	1597175	1	571	1595280	1601307	1	573	1600679	3	351	1601707	1	573	1600679	1604723	1	574	1603379	3	2204	inorganic	incorrect	1606955	1	575	1606079	1609488	1	576	1608779	3	792	1610304	1	576	1608779	fal_07977.png	fal_Korb.png	fal_Buegeleisen.png	ok
65672	08/18/2021 14:50:54	1	78	56291	1614136	1	577	1611479	1617202	1	579	1616879	3	412	organic	correct	1617635	1	579	1616879	1622400	1	581	1622279	3	743	1623167	1	581	1622279	1627682	1	582	1624979	3	1246	organic	correct	1628948	1	583	1627679	1632280	1	584	1630379	3	321	1632630	1	584	1630379	mos_23223.png	mos_Traube.png	mos_Eintagsfliege.png	ok
65672	08/18/2021 14:51:14	1	79	56291	1636462	1	586	1635779	1639561	1	587	1638479	3	561	organic	correct	1640144	1	587	1638479	1643193	1	588	1641179	3	546	1643776	1	588	1641179	1646775	1	590	1646579	3	1496	organic	incorrect	1648308	1	590	1646579	1652024	1	591	1649279	3	727	1652773	1	592	1651979	moe_23630.png	moe_Waschbaer.png	moe_Pommes.png	ok
65672	08/18/2021 14:51:35	1	80	56291	1657188	1	593	1654679	1659254	1	594	1657379	2	772	organic	incorrect	1660054	1	594	1657379	1664419	1	596	1662779	2	348	1664803	1	596	1662779	1668468	1	598	1668179	3	1380	organic	correct	1669884	1	598	1668179	1673116	1	599	1670879	3	395	1673550	1	599	1670879	mon_69587.png	mon_Kartoffel.png	mon_Fuchs.png	ok
65672	08/18/2021 14:51:56	1	81	56291	1677781	1	601	1676279	1681097	1	602	1678979	3	572	organic	correct	1681697	1	602	1678979	1684579	1	604	1684379	3	647	1685262	1	604	1684379	1689777	1	605	1687079	2	2591	organic	correct	1692393	1	606	1689779	1695109	1	607	1692479	3	314	1695459	1	608	1695179	mob_22833.png	mob_Kiwi.png	mob_Igel.png	ok
65672	08/18/2021 14:52:14	1	82	56291	1699158	1	609	1697879	1700790	1	610	1700579	3	335	inorganic	incorrect	1701174	1	610	1700579	1704872	1	611	1703279	3	230	1705139	1	611	1703279	1708488	1	612	1705979	2	1390	inorganic	correct	1709904	1	613	1708680	1712953	1	614	1711379	3	331	1713319	1	614	1711379	faw_14685.png	faw_Kuechenmaschine.png	faw_Hufeisen.png	ok
65672	08/18/2021 14:52:37	1	83	56291	1717168	1	616	1716779	1720217	1	617	1719478	2	631	organic	incorrect	1720884	1	617	1719478	1725132	1	619	1724878	3	308	1725465	1	619	1724878	1730347	1	621	1730278	2	1118	organic	correct	1731497	1	621	1730278	1734862	1	622	1732978	4	945	1735828	1	623	1735678	fot_06092.png	fot_Taube.png	fot_Salat.png	ok
65672	08/18/2021 14:52:55	1	84	56291	1739394	1	624	1738378	1741310	1	625	1741078	3	310	inorganic	incorrect	1741643	1	625	1741078	1745992	1	626	1743778	3	476	1746508	1	626	1743778	1750590	1	628	1749178	3	1106	inorganic	correct	1751723	1	628	1749178	1754855	1	630	1754578	4	782	1755672	1	630	1754578	fac_02970.png	fac_Haarbuerste.png	fac_Ohrring.png	ok
65672	08/18/2021 14:53:17	1	85	56291	1758238	1	631	1757278	1761370	1	632	1759978	2	752	inorganic	correct	1762153	1	632	1759978	1765952	1	634	1765378	2	277	1766252	1	634	1765378	1771117	1	636	1770778	3	1390	inorganic	correct	1772533	1	636	1770778	1775582	1	637	1773478	3	691	1776298	1	638	1776178	faj_07849.png	faj_Parfuem.png	faj_Schuh.png	ok
65672	08/18/2021 14:53:38	1	86	56291	1779914	1	639	1778878	1782796	1	640	1781578	3	372	organic	correct	1783196	1	640	1781578	1787861	1	642	1786978	3	590	1788477	1	642	1786978	1792076	1	643	1789678	3	1578	organic	incorrect	1793676	1	644	1792378	1796275	1	645	1795078	3	415	1796741	1	645	1795078	foa_00426.png	foa_Aubergine.png	foa_Marienkaefer.png	ok
65672	08/18/2021 14:53:57	1	87	56291	1800906	1	647	1800478	1802556	1	647	1800478	2	1410	inorganic	correct	1803989	1	648	1803178	1807304	1	649	1805878	3	239	1807571	1	649	1805878	1811353	1	651	1811278	2	1340	inorganic	correct	1812719	1	651	1811278	1816018	1	652	1813978	3	498	1816551	1	652	1813978	fap_17119.png	fap_Kissen.png	fap_Knopf.png	ok
65672	08/18/2021 14:54:16	1	88	56291	1819800	1	654	1819378	1821649	1	654	1819378	3	358	organic	correct	1822033	1	654	1819378	1825681	1	656	1824778	3	445	1826165	1	656	1824778	1829480	1	657	1827478	3	2752	organic	incorrect	1832263	1	658	1830178	1834595	1	659	1832878	2	333	1834962	1	659	1832878	foj_08937.png	foj_Waffel.png	foj_Rose.png	ok
65672	08/18/2021 14:54:35	1	89	56291	1838494	1	661	1838278	1840510	1	661	1838278	2	542	organic	incorrect	1841076	1	662	1840977	1844858	1	663	1843677	2	378	1845291	1	663	1843677	1848540	1	664	1846377	3	1408	organic	incorrect	1849973	1	665	1849077	1854005	1	666	1851777	3	414	1854455	1	666	1851777	foe_08514.png	foe_Tannenzapfen.png	foe_Adler.png	ok
65672	08/18/2021 14:54:56	1	90	56291	1858237	1	668	1857177	1860386	1	669	1859877	2	300	inorganic	correct	1860720	1	669	1859877	1864735	1	670	1862577	2	268	1865035	1	670	1862577	1869417	1	672	1867977	2	883	inorganic	correct	1870333	1	672	1867977	1873698	1	674	1873377	2	1154	1874881	1	674	1873377	mas_41937.png	mas_Bueroklammer.png	mas_Tisch.png	ok
65672	08/18/2021 14:55:15	1	91	56291	1878530	1	675	1876077	1881946	1	677	1881477	3	310	inorganic	incorrect	1882279	1	677	1881477	1887194	1	679	1886877	3	304	1887527	1	679	1886877	1890643	1	680	1889577	3	1511	inorganic	correct	1892176	1	680	1889577	1894408	1	681	1892277	3	396	1894858	1	681	1892277	mat_23754.png	mat_Helm.png	mat_Feuerzeug.png	ok
65672	08/18/2021 14:55:36	1	92	56291	1898207	1	683	1897677	1900373	1	683	1897677	2	522	inorganic	correct	1900923	1	684	1900377	1905038	1	685	1903077	3	252	1905321	1	685	1903077	1909653	1	687	1908477	3	1244	inorganic	correct	1910919	1	687	1908477	1915118	1	689	1913877	3	347	1915501	1	689	1913877	mai_23761.png	mai_Gewehr.png	mai_Auto.png	ok
65672	08/18/2021 14:55:55	1	93	56291	1919016	1	690	1916577	1921716	1	691	1919277	2	1556	inorganic	correct	1923298	1	692	1921977	1925614	1	693	1924677	2	339	1925981	1	693	1924677	1929013	1	694	1927377	3	2068	inorganic	incorrect	1931112	1	695	1930077	1933162	1	696	1932778	2	491	1933678	1	696	1932778	maw_22459.png	maw_Pingpongschlaeger.png	maw_Schlauchboot.png	ok
65672	08/18/2021 14:56:14	1	94	56291	1938060	1	697	1935477	1940259	1	698	1938177	3	298	inorganic	incorrect	1940592	1	698	1938177	1945408	1	700	1943577	3	533	1945991	1	700	1943577	1948823	1	701	1946278	3	1336	inorganic	correct	1950189	1	702	1948978	1952522	1	703	1951678	3	554	1953105	1	703	1951678	mal_20552.png	mal_Kugelschreiber.png	mal_Drucker.png	ok
65672	08/18/2021 14:56:35	1	95	56291	1957254	1	705	1957078	1960053	1	706	1959777	3	567	organic	correct	1960652	1	706	1959777	1964234	1	707	1962477	3	229	1964501	1	707	1962477	1968916	1	709	1967877	2	1011	organic	correct	1969949	1	709	1967877	1973098	1	710	1970577	3	366	1973498	1	711	1973277	mog_03277.png	mog_Pilz.png	mog_Fledermaus.png	ok
65672	08/18/2021 14:56:54	1	96	56291	1977797	1	712	1975977	1979863	1	713	1978677	2	1329	inorganic	correct	1981229	1	713	1978677	1984944	1	715	1984077	3	1128	1986094	1	715	1984077	1988893	1	716	1986777	3	1138	inorganic	correct	1990059	1	717	1989477	1992808	1	718	1992177	3	339	1993191	1	718	1992177	fan_18894.png	fan_Klavier.png	fan_Lampe.png	ok
