ID	DateTime	Run	Encoding_Trial	FaceBase_OnsetTime	FaceBase_OnsetTimeUncertainty	FaceBase_fMRI_Pulse	FaceBase_fMRI_PulseTime	Assoc_Encoding_OnsetTime	Assoc_Encoding_OnsetTimeUncertainty	Assoc_Encoding_fMRI_Pulse	Assoc_Encoding_fMRI_PulseTime	Immediate_Recall_OnsetTime	Immediate_Recall_OnsetTimeUncertainty	Immediate_Recall_fMRI_Pulse	Immediate_Recall_fMRI_PulseTime	Immediate_Recall_Pressed_Button	Immediate_Recall_RT	Immediate_Recall_Accuracy	Immediate_Recall_Feedback_OnsetTime	Immediate_Recall_Feedback_OnsetTimeUncertainty	Immediate_Recall_Feedback_fMRI_Pulse	Immediate_Recall_Feedback_fMRI_PulseTime	Presented_Person	Presented_Object	Object_Category	First_pulse_time	TrialStatus
65837	07/13/2021 13:32:31	1	1	74624	1	7	72873	77840	1	9	77120	82355	1	11	81359	3	803	correct	83188	1	11	81359	foq_16799.png	foq_Fenchel.png	organic	60160	ok
65837	07/13/2021 13:32:42	1	2	86104	1	13	85600	87720	1	13	85600	92285	1	16	91960	3	697	correct	93018	1	16	91960	mob_00760.png	mob_Kiwi.png	organic	60160	ok
65837	07/13/2021 13:32:52	1	3	96600	1	18	96199	99316	1	19	98320	102748	1	21	102559	3	540	correct	103315	1	21	102559	for_15187.png	for_Mandel.png	organic	60160	ok
65837	07/13/2021 13:33:03	1	4	107197	1	23	106800	109396	1	24	108920	113944	1	26	113160	3	483	correct	114477	1	26	113160	mog_03090.png	mog_Pilz.png	organic	60160	ok
65837	07/13/2021 13:33:13	1	5	118026	1	28	117399	120759	1	29	119519	123908	1	31	123760	3	380	correct	124324	1	31	123760	foi_03389.png	foi_Apfelkuchen.png	organic	60160	ok
65837	07/13/2021 13:33:25	1	6	127606	1	32	125879	130355	1	34	130119	134504	1	36	134359	3	535	correct	135071	1	36	134359	mol_07679.png	mol_Pizza.png	organic	60160	ok
65837	07/13/2021 13:33:35	1	7	139752	1	38	138600	141835	1	39	140719	145034	1	41	144959	2	488	correct	145550	1	41	144959	faj_07783.png	faj_Parfuem.png	inorganic	60160	ok
65837	07/13/2021 13:33:46	1	8	149732	1	43	149199	151998	1	44	151319	156097	1	46	155560	3	627	correct	156747	1	46	155560	mot_69374.png	mot_Hotdog.png	organic	60160	ok
65837	07/13/2021 13:33:55	1	9	160545	1	48	159799	162278	1	49	161919	165427	1	50	164039	2	829	incorrect	166293	1	51	166159	mom_59361.png	mom_Loewe.png	organic	60160	ok
65837	07/13/2021 13:34:04	1	10	169842	1	52	168279	172175	1	53	170399	175890	1	55	174639	2	967	correct	176890	1	56	176759	map_41499.png	map_Pfeife.png	inorganic	60160	ok
65837	07/13/2021 13:34:16	1	11	179256	1	57	178879	181088	1	58	180999	185803	1	60	185239	3	879	correct	186720	1	60	185239	mof_02408.png	mof_Spaghetti.png	organic	60160	ok
65837	07/13/2021 13:34:29	1	12	190568	1	62	189479	193684	1	63	191599	198449	1	66	197959	2	866	correct	199349	1	66	197959	faw_14215.png	faw_Hufeisen.png	inorganic	60160	ok
65837	07/13/2021 13:34:37	1	13	203697	1	68	202199	205430	1	69	204319	208729	1	71	208559	2	889	correct	209645	1	71	208559	fag_06539.png	fag_Portemonnaie.png	inorganic	60160	ok
65837	07/13/2021 13:34:47	1	14	212278	1	72	210678	214027	1	73	212799	217176	1	75	217039	2	469	correct	217676	1	75	217039	mat_23275.png	mat_Feuerzeug.png	inorganic	60160	ok
65837	07/13/2021 13:35:00	1	15	222124	1	77	221279	224574	1	78	223399	229505	1	80	227639	2	334	correct	229872	1	81	229759	far_00736.png	far_Heissluftballon.png	inorganic	60160	ok
65837	07/13/2021 13:35:09	1	16	234687	1	83	233998	236686	1	84	236120	240202	1	85	238239	3	571	correct	240802	1	86	240360	moj_11821.png	moj_Blatt.png	organic	60160	ok
65837	07/13/2021 13:35:22	1	17	244050	1	87	242478	246999	1	89	246719	251548	1	91	250958	2	1019	correct	252598	1	91	250958	mak_00987.png	mak_Socken.png	inorganic	60160	ok
65837	07/13/2021 13:35:32	1	18	256646	1	93	255199	258962	1	94	257319	262694	1	96	261559	2	886	correct	263627	1	96	261559	fan_17286.png	fan_Lampe.png	inorganic	60160	ok
65837	07/13/2021 13:35:44	1	19	266943	1	98	265798	269409	1	99	267919	274457	1	102	274278	3	673	correct	275157	1	102	274278	fop_00621.png	fop_Koala.png	organic	60160	ok
65837	07/13/2021 13:35:55	1	20	279039	1	104	278520	281721	1	105	280639	285520	1	107	284879	2	753	correct	286303	1	107	284879	mae_01010.png	mae_Schach.png	inorganic	60160	ok
65837	07/13/2021 13:36:07	1	21	289952	1	109	289118	292884	1	110	291238	296783	1	112	295478	3	934	correct	297749	1	113	297598	fov_15046.png	fov_Zucchini.png	organic	60160	ok
65837	07/13/2021 13:36:18	1	22	301814	1	114	299718	304530	1	116	303959	308095	1	117	306078	2	1062	correct	309178	1	118	308198	fat_12032.png	fat_Kleiderbuegel.png	inorganic	60160	ok
65837	07/13/2021 13:36:30	1	23	312461	1	119	310318	315926	1	121	314559	320891	1	123	318799	2	720	correct	321641	1	124	320919	mas_41366.png	mas_Tisch.png	inorganic	60160	ok
65837	07/13/2021 13:36:39	1	24	324523	1	125	323038	326939	1	126	325160	330588	1	128	329399	2	1080	correct	331704	1	129	331519	fai_07494.png	fai_Foehn.png	inorganic	60160	ok
65837	07/13/2021 13:36:50	1	25	334220	1	130	333639	335969	1	131	335759	340884	1	133	339998	3	501	correct	341418	1	133	339998	fok_09378.png	fok_Kaenguruh.png	organic	60160	ok
65837	07/13/2021 13:37:00	1	26	344417	1	135	344239	347399	1	136	346359	351214	1	138	350599	3	791	correct	352031	1	138	350599	foc_02157.png	foc_Brombeere.png	organic	60160	ok
65837	07/13/2021 13:37:12	1	27	355063	1	140	354839	357362	1	141	356958	361244	1	142	359079	2	595	correct	361877	1	143	361199	fal_07906.png	fal_Korb.png	inorganic	60160	ok
65837	07/13/2021 13:37:25	1	28	366542	1	145	365439	369925	1	147	369679	374740	1	149	373919	2	573	correct	375339	1	149	373919	mal_04470.png	mal_Drucker.png	inorganic	60160	ok
65837	07/13/2021 13:37:35	1	29	379571	1	151	378159	382004	1	152	380278	386136	1	154	384519	3	559	correct	386719	1	155	386639	foj_08220.png	foj_Rose.png	organic	60160	ok
65837	07/13/2021 13:37:45	1	30	390084	1	156	388758	392000	1	157	390879	395483	1	159	395118	2	343	correct	395849	1	159	395118	fac_02146.png	fac_Haarbuerste.png	inorganic	60160	ok
65837	07/13/2021 13:37:57	1	31	400264	1	161	399359	402330	1	162	401479	406712	1	164	405718	3	605	correct	407345	1	164	405718	fot_00797.png	fot_Salat.png	organic	60160	ok
65837	07/13/2021 13:38:07	1	32	411727	1	166	409959	415126	1	168	414198	418492	1	170	418438	2	902	correct	419425	1	170	418438	mau_49693.png	mau_Leiter.png	inorganic	60160	ok
65837	07/13/2021 13:38:18	1	33	421890	1	171	420558	424739	1	172	422679	429221	1	175	429038	3	700	correct	429954	1	175	429038	mos_20953.png	mos_Eintagsfliege.png	organic	60160	ok
65837	07/13/2021 13:38:30	1	34	432970	1	176	431159	435786	1	178	435398	440751	1	180	439639	2	685	correct	441467	1	180	439639	fax_14883.png	fax_Klebeband.png	inorganic	60160	ok
65837	07/13/2021 13:38:43	1	35	445099	1	182	443878	447665	1	183	445998	452480	1	186	452358	3	1354	correct	453863	1	186	452358	foe_08236.png	foe_Adler.png	organic	60160	ok
65837	07/13/2021 13:38:54	1	36	457612	1	188	456598	459911	1	189	458718	464159	1	191	462959	2	355	correct	464543	1	191	462959	fap_16329.png	fap_Kissen.png	inorganic	60160	ok
65837	07/13/2021 13:39:04	1	37	468541	1	193	467198	471374	1	194	469318	475022	1	196	473558	3	513	correct	475572	1	196	473558	fou_17118.png	fou_Feige.png	organic	60160	ok
65837	07/13/2021 13:39:15	1	38	478571	1	198	477798	481820	1	199	479918	485602	1	201	484158	2	372	correct	486002	1	201	484158	mao_11634.png	mao_Stempel.png	inorganic	60160	ok
65837	07/13/2021 13:39:26	1	39	489951	1	203	488398	493000	1	205	492638	497098	1	207	496878	2	847	correct	497981	1	207	496878	mac_59169.png	mac_Medaille.png	inorganic	60160	ok
65837	07/13/2021 13:39:35	1	40	500664	1	208	498998	502497	1	209	501118	506578	1	211	505358	2	850	correct	507478	1	211	505358	fab_06018.png	fab_Staubsauger.png	inorganic	60160	ok
65837	07/13/2021 13:39:46	1	41	510077	1	213	509598	513026	1	214	511718	516425	1	216	515958	2	371	correct	516825	1	216	515958	maw_04767.png	maw_Pingpongschlaeger.png	inorganic	60160	ok
65837	07/13/2021 13:39:57	1	42	521124	1	218	520198	524239	1	219	522318	528321	1	221	526557	3	683	correct	529038	1	222	528678	mou_01862.png	mou_Kraehe.png	organic	60160	ok
65837	07/13/2021 13:40:07	1	43	531953	1	223	530798	534786	1	224	532918	537851	1	226	537158	2	628	correct	538501	1	226	537158	mai_06530.png	mai_Gewehr.png	inorganic	60160	ok
65837	07/13/2021 13:40:18	1	44	541767	1	228	541397	544816	1	229	543517	548681	1	231	547758	2	932	correct	549647	1	231	547758	maj_01545.png	maj_Krawatte.png	inorganic	60160	ok
65837	07/13/2021 13:40:29	1	45	552596	1	233	551997	555595	1	234	554118	559061	1	236	558357	3	329	correct	559444	1	236	558357	foa_00207.png	foa_Marienkaefer.png	organic	60160	ok
65837	07/13/2021 13:40:41	1	46	563476	1	238	562598	566825	1	239	564717	570940	1	241	568958	3	941	correct	571906	6	242	571078	moh_06446.png	moh_Muecke.png	organic	60160	ok
65837	07/13/2021 13:40:51	1	47	576205	1	244	575317	578038	1	245	577438	581903	1	247	581677	3	1006	correct	582936	1	247	581677	moe_02012.png	moe_Pommes.png	organic	60160	ok
65837	07/13/2021 13:41:03	1	48	585618	1	248	583797	587934	1	249	585918	592999	1	252	592277	3	652	correct	593682	1	252	592277	mon_65798.png	mon_Kartoffel.png	organic	60160	ok
65837	07/13/2021 13:41:14	1	49	597981	1	254	596517	600630	1	255	598637	604679	1	257	602877	3	484	correct	605195	1	258	604997	foq_17341.png	foq_Pinguin.png	organic	60160	ok
65837	07/13/2021 13:41:25	1	50	608627	1	259	607117	611693	1	261	611357	616525	1	263	615597	3	379	correct	616925	1	263	615597	mob_22833.png	mob_Igel.png	organic	60160	ok
65837	07/13/2021 13:41:37	1	51	620024	1	265	619837	623239	1	266	621957	627638	1	268	626197	3	651	correct	628321	1	268	626197	for_15880.png	for_Seehund.png	organic	60160	ok
65837	07/13/2021 13:41:48	1	52	631603	1	270	630437	633336	1	271	632557	638001	1	273	636797	3	437	correct	638467	1	273	636797	mog_03277.png	mog_Fledermaus.png	organic	60160	ok
65837	07/13/2021 13:41:58	1	53	642832	1	275	641037	645432	1	277	645277	648814	1	278	647397	3	832	correct	649680	1	279	649517	foi_05187.png	foi_Pflanze.png	organic	60160	ok
65837	07/13/2021 13:42:09	1	54	652613	1	280	651637	655695	1	281	653757	659943	1	283	657997	3	416	correct	660393	1	284	660117	mol_11363.png	mol_Schimpanse.png	organic	60160	ok
65837	07/13/2021 13:42:22	1	55	663925	1	285	662237	667024	1	287	666477	672056	1	289	670717	2	991	correct	673072	1	290	672836	faj_07849.png	faj_Schuh.png	inorganic	60160	ok
65837	07/13/2021 13:42:33	1	56	677104	1	291	674957	679137	1	292	677077	683069	1	294	681316	3	964	correct	684069	1	295	683437	mot_69770.png	mot_Bison.png	organic	60160	ok
65837	07/13/2021 13:42:43	1	57	687567	1	296	685557	690450	1	298	689796	694248	1	300	694037	3	1201	correct	695481	1	300	694037	mom_59641.png	mom_Ei.png	organic	60160	ok
65837	07/13/2021 13:42:54	1	58	698314	1	302	698277	699913	1	302	698277	703745	1	304	702517	2	1421	correct	705211	1	305	704636	map_49576.png	map_Globus.png	inorganic	60160	ok
65837	07/13/2021 13:43:04	1	59	708394	1	306	706757	711293	1	308	710996	714925	1	309	713116	3	548	correct	715508	1	310	715237	mof_06901.png	mof_Hahn.png	organic	60160	ok
65837	07/13/2021 13:43:15	1	60	718890	1	311	717357	721289	1	312	719476	724638	1	314	723717	2	1046	correct	725721	1	314	723717	faw_14685.png	faw_Kuechenmaschine.png	inorganic	60160	ok
65837	07/13/2021 13:43:25	1	61	729453	1	316	727956	731303	1	317	730076	735834	1	319	734316	2	763	correct	736634	1	320	736436	fag_06551.png	fag_Geschenk.png	inorganic	60160	ok
65837	07/13/2021 13:43:36	1	62	739816	1	321	738556	742366	1	322	740677	745748	1	324	744916	2	529	correct	746314	1	324	744916	mat_23754.png	mat_Helm.png	inorganic	60160	ok
65837	07/13/2021 13:43:46	1	63	750513	1	326	749156	752895	1	327	751276	757061	1	329	755517	2	554	correct	757660	1	329	755517	far_06518.png	far_Giesskanne.png	inorganic	60160	ok
65837	07/13/2021 13:43:56	1	64	761143	1	331	759756	763525	1	332	761876	766957	1	334	766116	3	1005	correct	767990	1	334	766116	moj_11860.png	moj_Walnuss.png	organic	60160	ok
65837	07/13/2021 13:44:09	1	65	770639	1	336	770356	773905	1	337	772476	778420	1	339	776716	2	666	correct	779120	1	340	778836	mak_03979.png	mak_Rucksack.png	inorganic	60160	ok
65837	07/13/2021 13:44:19	1	66	783368	1	342	783076	786117	1	343	785196	790633	1	345	789436	2	409	correct	791066	1	345	789436	fan_18894.png	fan_Klavier.png	inorganic	60160	ok
65837	07/13/2021 13:44:31	1	67	794315	1	347	793676	797664	1	348	795796	801246	1	350	800036	3	851	correct	802129	1	350	800036	fop_07937.png	fop_Mango.png	organic	60160	ok
65837	07/13/2021 13:44:41	1	68	805777	1	352	804276	807377	1	353	806396	811892	1	355	810635	2	921	correct	812842	1	356	812756	mae_36426.png	mae_Taschenrechner.png	inorganic	60160	ok
65837	07/13/2021 13:44:52	1	69	816141	1	357	814876	818190	1	358	816996	823022	1	360	821236	3	818	correct	823871	1	361	823356	fov_15193.png	fov_Fisch.png	organic	60160	ok
65837	07/13/2021 13:45:02	1	70	826537	1	362	825476	829519	1	363	827596	833202	1	365	831836	2	1180	correct	834418	1	366	833955	fat_14140.png	fat_Einkaufswagen.png	inorganic	60160	ok
65837	07/13/2021 13:45:12	1	71	837117	1	367	836076	838883	1	368	838196	842732	1	370	842435	2	469	correct	843231	1	370	842435	mas_41937.png	mas_Bueroklammer.png	inorganic	60160	ok
65837	07/13/2021 13:45:25	1	72	847230	1	372	846676	850579	1	373	848796	855211	1	376	855156	2	579	correct	855844	1	376	855156	fai_07637.png	fai_Kommode.png	inorganic	60160	ok
65837	07/13/2021 13:45:35	1	73	859443	1	378	859395	861225	1	378	859395	864374	1	380	863636	3	1285	correct	865691	1	380	863636	fok_09860.png	fok_Palme.png	organic	60160	ok
65837	07/13/2021 13:45:46	1	74	869539	1	382	867875	871489	1	383	869996	875954	1	385	874235	3	631	correct	876620	1	386	876356	foc_02664.png	foc_Eule.png	organic	60160	ok
65837	07/13/2021 13:45:57	1	75	880402	1	387	878476	881968	1	388	880595	886717	1	390	884836	2	553	correct	887300	1	391	886956	fal_07977.png	fal_Buegeleisen.png	inorganic	60160	ok
65837	07/13/2021 13:46:09	1	76	891932	1	393	891195	893864	1	394	893316	898213	1	396	897555	2	565	correct	898813	1	396	897555	mal_20552.png	mal_Kugelschreiber.png	inorganic	60160	ok
65837	07/13/2021 13:46:18	1	77	903494	1	398	901796	905394	1	399	903915	909359	1	401	908155	3	712	correct	910109	1	401	908155	foj_08937.png	foj_Waffel.png	organic	60160	ok
65837	07/13/2021 13:46:31	1	78	912808	1	403	912395	916323	1	404	914515	920372	1	406	918755	2	564	correct	920972	1	407	920875	fac_02970.png	fac_Ohrring.png	inorganic	60160	ok
65837	07/13/2021 13:46:41	1	79	925387	1	409	925116	928103	1	410	927235	931452	1	411	929355	3	893	correct	932368	1	412	931475	fot_06092.png	fot_Taube.png	organic	60160	ok
65837	07/13/2021 13:46:53	1	80	936217	1	414	935715	939566	1	415	937835	942964	1	417	942075	2	423	correct	943414	1	417	942075	mau_58144.png	mau_Wasserventil.png	inorganic	60160	ok
65837	07/13/2021 13:47:05	1	81	948229	1	419	946315	951178	1	421	950555	954761	1	422	952675	3	1004	correct	955793	1	423	954795	mos_23223.png	mos_Traube.png	organic	60160	ok
65837	07/13/2021 13:47:16	1	82	959842	1	425	959035	962708	1	426	961155	966673	1	428	965394	2	1091	correct	967789	1	429	967515	fax_15310.png	fax_Fahrrad.png	inorganic	60160	ok
65837	07/13/2021 13:47:25	1	83	970572	1	430	969635	972288	1	431	971755	975720	1	432	973875	3	802	correct	976553	1	433	975995	foe_08514.png	foe_Tannenzapfen.png	organic	60160	ok
65837	07/13/2021 13:47:38	1	84	980319	1	435	980234	983384	1	436	982355	987666	1	438	986595	2	1020	correct	988716	1	438	986595	fap_17119.png	fap_Knopf.png	inorganic	60160	ok
65837	07/13/2021 13:47:49	1	85	992731	1	440	990835	995114	1	442	995074	999812	1	444	999315	3	459	correct	1000312	1	444	999315	fou_18966.png	fou_Schmetterling.png	organic	60160	ok
65837	07/13/2021 13:48:01	1	86	1003477	1	445	1001435	1006810	1	447	1005674	1011125	1	449	1009915	2	1031	correct	1012191	1	450	1012034	mao_19000.png	mao_Kegel.png	inorganic	60160	ok
65837	07/13/2021 13:48:14	1	87	1016240	1	451	1014154	1019655	1	453	1018394	1024387	1	455	1022635	2	586	correct	1025003	1	456	1024755	mac_59752.png	mac_Dartpfeil.png	inorganic	60160	ok
65837	07/13/2021 13:48:25	1	88	1028536	1	457	1026874	1031701	1	459	1031115	1034817	1	460	1033235	2	1418	correct	1036266	1	461	1035354	fab_06286.png	fab_Kinderwagen.png	inorganic	60160	ok
65837	07/13/2021 13:48:37	1	89	1040065	1	463	1039595	1043564	1	464	1041714	1047263	1	466	1045954	2	653	correct	1047946	1	466	1045954	maw_22459.png	maw_Schlauchboot.png	inorganic	60160	ok
65837	07/13/2021 13:48:48	1	90	1052278	1	468	1050194	1053960	1	469	1052314	1057542	1	471	1056555	3	446	correct	1058026	1	471	1056555	mou_06524.png	mou_Croissant.png	organic	60160	ok
65837	07/13/2021 13:48:58	1	91	1062824	1	473	1060794	1064407	1	474	1062915	1067789	1	476	1067154	2	1180	correct	1069005	1	476	1067154	mai_23761.png	mai_Auto.png	inorganic	60160	ok
65837	07/13/2021 13:49:09	1	92	1072337	1	478	1071395	1074353	1	479	1073514	1078719	1	481	1077754	2	357	correct	1079102	1	481	1077754	maj_01546.png	maj_Computermaus.png	inorganic	60160	ok
65837	07/13/2021 13:49:21	1	93	1084017	1	483	1081994	1087033	1	485	1086234	1090998	1	487	1090474	3	468	correct	1091498	1	487	1090474	foa_00426.png	foa_Aubergine.png	organic	60160	ok
65837	07/13/2021 13:49:30	1	94	1095380	1	489	1094714	1097612	1	490	1096834	1101044	1	491	1098954	3	799	correct	1101894	1	492	1101074	moh_07125.png	moh_Birne.png	organic	60160	ok
65837	07/13/2021 13:49:43	1	95	1105326	1	493	1103194	1107842	1	495	1107434	1112441	1	497	1111674	3	781	correct	1113257	1	497	1111674	moe_23630.png	moe_Waschbaer.png	organic	60160	ok
65837	07/13/2021 13:49:52	1	96	1117606	1	499	1115914	1120005	1	500	1118033	1123320	1	502	1122274	3	546	correct	1123903	1	502	1122274	mon_69587.png	mon_Fuchs.png	organic	60160	ok
