ID	DateTime	Run	Delayed_Retrieval_Trial	First_Pulse_Time	FaceRecog_OnsetTime	FaceRecog_OnsetTimeUncertainty	FaceRecog_fMRI_Pulse	FaceRecog_fMRI_PulseTime	Assoc_Retrieval_OnsetTime	Assoc_Retrieval_OnsetTimeUncertainty	Assoc_Retrieval_fMRI_Pulse	Assoc_Retrieval_fMRI_PulseTime	Assoc_Retrieval_Pressed_Button	Assoc_Retrieval_RT	Assoc_Retrieval_Response_Category	Assoc_Retrieval_Accuracy	Assoc_Retrieval_Feedback_OnsetTime	Assoc_Retrieval_Feedback_OnsetTimeUncertainty	Assoc_Retrieval_Feedback_fMRI_Pulse	Assoc_Retrieval_Feedback_fMRI_PulseTime	Retrieval_consc_Rating_OnsetTime	Retrieval_consc_Rating_OnsetTimeUncertainty	Retrieval_consc_Rating_fMRI_Pulse	Retrieval_consc_Rating_fMRI_PulseTime	Retrieval_consc_Rating_Pressed_Button	Retrieval_consc_Rating_RT	Retrieval_consc_Rating_Feedback_OnsetTime	Retrieval_consc_Rating_Feedback_OnsetTimeUncertainty	Retrieval_consc_Rating_Feedback_fMRI_Pulse	Retrieval_consc_Rating_Feedback_fMRI_PulseTime	ForcedChoice_OnsetTime	ForcedChoice_OnsetTimeUncertainty	ForcedChoice_fMRI_Pulse	ForcedChoice_fMRI_PulseTime	ForcedChoice_Pressed_Button	ForcedChoice_RT	ForcedChoice_Response_Category	ForcedChoice_Accuracy	ForcedChoice_Feedback_OnsetTime	ForcedChoice_Feedback_OnsetTimeUncertainty	ForcedChoice_Feedback_fMRI_Pulse	ForcedChoice_Feedback_fMRI_PulseTime	Recognition_consc_Rating_OnsetTime	Recognition_consc_Rating_OnsetTimeUncertainty	Recognition_consc_Rating_fMRI_Pulse	Recognition_consc_Rating_fMRI_PulseTime	Recognition_consc_Rating_Pressed_Button	Recognition_consc_Rating_RT	Recognition_consc_Rating_Feedback_OnsetTime	Recognition_consc_Rating_Feedback_OnsetTimeUncertainty	Recognition_consc_Rating_Feedback_fMRI_Pulse	Recognition_consc_Rating_Feedback_fMRI_PulseTime	Presented_Person	Presented_Target	Presented_Lure	TrialStatus
65837	07/14/2021 14:23:17	1	1	156371	169326	1	7	169091	171058	1	7	169091	3	1451	organic	correct	172541	1	8	171211	174740	1	9	173331	4	924	175690	1	10	175451	178406	1	11	177571	3	1453	organic	correct	179889	1	12	179691	182504	1	13	181811	4	507	183038	1	13	181811	foq_16799.png	foq_Fenchel.png	foq_Pinguin.png	ok
65837	07/14/2021 14:23:38	1	2	156371	186936	1	15	186051	189785	1	16	188171	3	481	organic	correct	190302	1	16	188171	193551	1	18	192411	3	1122	194700	1	19	194531	198566	1	20	196651	2	1823	organic	correct	200415	1	21	198770	203164	1	23	203011	2	1078	204297	1	23	203011	for_15187.png	for_Mandel.png	for_Seehund.png	ok
65837	07/14/2021 14:23:58	1	3	156371	208063	1	25	207250	210362	1	26	209371	3	447	organic	correct	210845	1	26	209371	215110	1	28	213611	3	970	216110	1	29	215730	219109	1	30	217851	2	1548	organic	correct	220692	1	31	219971	223424	1	32	222090	3	1731	225190	1	33	224210	mog_03090.png	mog_Pilz.png	mog_Fledermaus.png	ok
65837	07/14/2021 14:24:18	1	4	156371	228322	1	34	226331	231488	1	36	230570	3	831	organic	correct	232354	1	36	230570	236120	1	38	234811	3	896	237053	1	39	236931	239668	1	40	239050	2	1251	organic	correct	240951	1	40	239050	244334	1	42	243291	3	627	244983	1	42	243291	mob_00760.png	mob_Kiwi.png	mob_Igel.png	ok
65837	07/14/2021 14:24:41	1	5	156371	248249	1	44	247530	251531	1	45	249651	2	496	inorganic	correct	252081	1	46	251771	256529	1	48	256010	4	362	256929	1	48	256010	261661	1	50	260251	3	787	inorganic	correct	262477	1	51	262370	266859	1	53	266611	4	382	267276	1	53	266611	faj_07783.png	faj_Parfuem.png	faj_Schuh.png	ok
65837	07/14/2021 14:25:01	1	6	156371	271341	1	55	270850	274124	1	56	272970	3	294	organic	correct	274440	1	56	272970	278839	1	58	277210	3	953	279822	1	59	279330	283470	1	60	281451	2	891	organic	correct	284387	1	61	283571	287119	1	62	285690	3	708	287852	1	63	287810	mot_69374.png	mot_Hotdog.png	mot_Bison.png	ok
65837	07/14/2021 14:25:22	1	7	156371	291001	1	64	289931	293367	1	65	292050	2	1394	organic	incorrect	294783	1	66	294170	297816	1	67	296290	2	746	298599	1	68	298411	302847	1	70	302650	3	1738	organic	correct	304630	1	70	302650	307829	1	72	306891	3	1012	308878	1	72	306891	foi_03389.png	foi_Apfelkuchen.png	foi_Pflanze.png	ok
65837	07/14/2021 14:25:43	1	8	156371	312111	1	74	311130	315593	1	76	315370	3	309	organic	correct	315926	1	76	315370	320191	1	78	319610	3	925	321141	1	78	319610	324773	1	80	323850	2	1223	organic	correct	326023	1	81	325970	329671	1	82	328090	3	1037	330738	1	83	330210	mol_07679.png	mol_Pizza.png	mol_Schimpanse.png	ok
65837	07/14/2021 14:26:04	1	9	156371	333403	1	84	332330	336436	1	85	334450	2	1669	inorganic	correct	338135	1	86	336570	340384	1	87	338690	2	510	340918	1	88	340810	344300	1	89	342930	2	1228	inorganic	correct	345549	1	90	345050	349231	1	91	347170	4	1119	350398	1	92	349290	faw_14215.png	faw_Hufeisen.png	faw_Kuechenmaschine.png	ok
65837	07/14/2021 14:26:23	1	10	156371	353997	1	94	353529	355929	1	95	355650	2	598	inorganic	correct	356562	1	95	355650	360461	1	97	359890	4	309	360794	1	97	359890	365343	1	99	364130	3	1326	inorganic	correct	366692	1	100	366250	369758	1	101	368370	4	798	370591	1	102	370489	map_41499.png	map_Pfeife.png	map_Globus.png	ok
65837	07/14/2021 14:26:43	1	11	156371	373323	1	103	372610	375189	1	104	374730	3	1835	organic	correct	377055	1	105	376849	379988	1	106	378970	2	868	380887	1	106	378970	385319	1	108	383210	2	2373	organic	incorrect	387718	1	110	387450	389185	1	110	387450	2	1327	390534	1	111	389570	mof_02408.png	mof_Spaghetti.png	mof_Hahn.png	ok
65837	07/14/2021 14:27:04	1	12	156371	393666	1	112	391689	395732	1	113	393809	3	527	organic	correct	396282	1	114	395930	400164	1	115	398050	4	554	400764	1	116	400169	405512	1	118	404410	3	840	organic	correct	406379	1	118	404410	409361	1	120	408649	4	465	409861	1	120	408649	mom_59361.png	mom_Loewe.png	mom_Ei.png	ok
65837	07/14/2021 14:27:23	1	13	156371	414676	1	122	412890	417042	1	123	415009	2	772	organic	incorrect	417842	1	124	417129	421857	1	126	421370	2	379	422273	1	126	421370	425356	1	127	423489	2	2119	organic	incorrect	427505	1	128	425609	429204	1	129	427730	2	963	430204	1	130	429850	moj_11821.png	moj_Blatt.png	moj_Walnuss.png	ok
65837	07/14/2021 14:27:43	1	14	156371	433253	1	131	431969	435102	1	132	434089	3	2073	inorganic	incorrect	437202	1	133	436210	439734	1	134	438329	2	1365	441134	1	135	440449	443466	1	136	442569	2	1408	inorganic	correct	444899	1	137	444690	448598	1	138	446809	2	2139	450780	1	139	448929	fag_06539.png	fag_Portemonnaie.png	fag_Geschenk.png	ok
65837	07/14/2021 14:28:03	1	15	156371	453163	1	140	451049	455496	1	142	455289	2	338	inorganic	correct	455862	1	142	455289	459777	1	144	459529	4	354	460161	1	144	459529	463460	1	145	461649	3	501	inorganic	correct	463993	1	146	463769	468541	1	148	468010	4	626	469191	1	148	468010	mat_23275.png	mat_Feuerzeug.png	mat_Helm.png	ok
65837	07/14/2021 14:28:21	1	16	156371	472890	1	150	472249	475605	1	151	474369	2	914	inorganic	correct	476555	1	152	476489	479188	1	153	478609	4	778	479987	1	153	478609	482803	1	154	480729	2	450	inorganic	correct	483286	1	155	482849	487168	1	157	487089	4	316	487518	1	157	487089	far_00736.png	far_Heissluftballon.png	far_Giesskanne.png	ok
65837	07/14/2021 14:28:42	1	17	156371	491233	1	158	489209	493716	1	160	493449	3	1291	inorganic	incorrect	495032	1	160	493449	497531	1	161	495569	2	766	498348	1	162	497689	502613	1	164	501929	2	1741	inorganic	incorrect	504379	1	165	504049	506828	1	166	506169	2	1050	507911	1	166	506169	mae_01010.png	mae_Schach.png	mae_Taschenrechner.png	ok
65837	07/14/2021 14:29:00	1	18	156371	511993	1	168	510409	514492	1	169	512529	3	1092	inorganic	incorrect	515609	1	170	514649	517891	1	171	516769	2	902	518824	1	171	516769	521690	1	173	521009	3	1570	inorganic	correct	523289	1	174	523128	526022	1	175	525249	2	1561	527605	1	176	527369	mak_00987.png	mak_Socken.png	mak_Rucksack.png	ok
65837	07/14/2021 14:29:20	1	19	156371	530637	1	177	529489	532320	1	178	531608	2	1450	organic	incorrect	533802	1	179	533729	537351	1	180	535849	2	697	538084	1	181	537968	542383	1	183	542209	3	1996	organic	incorrect	544399	1	184	544329	546282	1	184	544329	2	1175	547498	1	185	546448	fop_00621.png	fop_Koala.png	fop_Mango.png	ok
65837	07/14/2021 14:29:42	1	20	156371	550863	1	187	550689	553962	1	188	552809	2	1993	inorganic	correct	555978	1	189	554928	557328	1	190	557048	4	1182	558544	1	190	557048	562309	1	192	561288	3	864	inorganic	correct	563209	1	192	561288	567408	1	194	565529	4	306	567741	1	195	567649	fan_17286.png	fan_Lampe.png	fan_Klavier.png	ok
65837	07/14/2021 14:30:02	1	21	156371	571890	1	196	569768	574472	1	198	574009	2	667	inorganic	correct	575172	1	198	574009	579554	1	200	578248	4	752	580337	1	200	578248	583069	1	202	582489	3	908	inorganic	correct	584002	1	202	582489	587984	1	204	586728	4	342	588351	1	204	586728	fai_07494.png	fai_Foehn.png	fai_Kommode.png	ok
65837	07/14/2021 14:30:23	1	22	156371	592499	1	206	590969	595132	1	207	593088	3	1642	organic	correct	596814	1	208	595208	599214	1	209	597329	2	799	600063	1	210	599449	604529	1	212	603688	3	1738	organic	correct	606295	1	213	605808	609360	1	214	607928	3	1524	610910	1	215	610048	fov_15046.png	fov_Zucchini.png	fov_Fisch.png	ok
65837	07/14/2021 14:30:42	1	23	156371	613542	1	216	612168	615741	1	217	614289	3	1659	inorganic	incorrect	617424	1	218	616408	620023	1	219	618528	2	571	620623	1	219	618528	624122	1	221	622768	3	1900	inorganic	correct	626055	1	222	624888	628654	1	223	627008	2	881	629570	1	224	629128	mas_41366.png	mas_Tisch.png	mas_Bueroklammer.png	ok
65837	07/14/2021 14:31:02	1	24	156371	632302	1	225	631248	634435	1	226	633368	3	1305	inorganic	incorrect	635768	1	227	635488	638917	1	228	637608	2	665	639617	1	228	637608	643815	1	230	641848	3	1629	inorganic	correct	645481	1	231	643968	647614	1	232	646088	2	288	647947	1	232	646088	fat_12032.png	fat_Kleiderbuegel.png	fat_Einkaufswagen.png	ok
65837	07/14/2021 14:31:22	1	25	156371	652412	1	234	650328	653978	1	235	652448	2	1467	inorganic	correct	655478	1	236	654568	658610	1	237	656688	4	421	659060	1	238	658808	662975	1	239	660928	2	518	inorganic	correct	663525	1	240	663048	667507	1	242	667288	4	409	667940	1	242	667288	fal_07906.png	fal_Korb.png	fal_Buegeleisen.png	ok
65837	07/14/2021 14:31:42	1	26	156371	672039	1	244	671528	674238	1	245	673648	3	401	organic	correct	674671	1	245	673648	679287	1	247	677887	4	441	679753	1	247	677887	683352	1	249	682128	3	895	organic	correct	684268	1	250	684247	688450	1	251	686367	4	797	689283	1	252	688488	foc_02157.png	foc_Brombeere.png	foc_Eule.png	ok
65837	07/14/2021 14:32:03	1	27	156371	692316	1	253	690608	695764	1	255	694847	3	373	inorganic	incorrect	696181	1	255	694847	700046	1	257	699088	2	381	700463	1	257	699088	703478	1	259	703328	2	2734	inorganic	incorrect	706244	1	260	705448	708510	1	261	707567	2	1619	710160	1	262	709687	mal_04470.png	mal_Drucker.png	mal_Kugelschreiber.png	ok
65837	07/14/2021 14:32:23	1	28	156371	713009	1	263	711808	714925	1	264	713928	3	351	organic	correct	715308	1	264	713928	719373	1	266	718167	2	600	720006	1	266	718167	724088	1	268	722408	2	1398	organic	incorrect	725521	1	269	724527	729670	1	271	728768	2	427	730119	1	271	728768	fok_09378.png	fok_Kaenguruh.png	fok_Palme.png	ok
65837	07/14/2021 14:32:42	1	29	156371	733585	1	273	733007	735718	1	274	735127	3	696	inorganic	incorrect	736451	1	274	735127	739816	1	276	739367	2	2174	742015	1	277	741487	743948	1	278	743608	3	1615	inorganic	correct	745614	1	278	743608	748746	1	280	747847	3	1213	749996	1	280	747847	mau_49693.png	mau_Leiter.png	mau_Wasserventil.png	ok
65837	07/14/2021 14:33:03	1	30	156371	752095	1	281	749967	755144	1	283	754207	2	838	organic	incorrect	756011	1	283	754207	759659	1	285	758447	2	287	759976	1	285	758447	764325	1	287	762687	2	2038	organic	correct	766391	1	288	764807	768307	1	289	766927	3	1601	769939	1	290	769047	fot_00797.png	fot_Salat.png	fot_Taube.png	ok
65837	07/14/2021 14:33:24	1	31	156371	773588	1	292	773287	775454	1	293	775407	2	757	organic	incorrect	776237	1	293	775407	779803	1	295	779647	3	1158	780986	1	295	779647	784918	1	297	783887	2	529	organic	correct	785467	1	297	783887	790216	1	299	788127	4	441	790682	1	300	790247	foj_08220.png	foj_Rose.png	foj_Waffel.png	ok
65837	07/14/2021 14:33:45	1	32	156371	794015	1	301	792367	796830	1	303	796607	3	810	inorganic	incorrect	797680	1	303	796607	801495	1	305	800847	3	386	801912	1	305	800847	806710	1	307	805087	3	1605	inorganic	correct	808343	1	308	807207	810426	1	309	809327	4	1133	811592	1	310	811447	fac_02146.png	fac_Haarbuerste.png	fac_Ohrring.png	ok
65837	07/14/2021 14:34:06	1	33	156371	815491	1	311	813567	817573	1	312	815686	3	1636	inorganic	incorrect	819239	1	313	817807	822588	1	315	822047	2	1050	823671	1	315	822047	827387	1	317	826287	2	1218	inorganic	correct	828636	1	318	828407	831685	1	319	830526	2	1180	832901	1	320	832647	fap_16329.png	fap_Kissen.png	fap_Knopf.png	ok
65837	07/14/2021 14:34:24	1	34	156371	836100	1	321	834767	837950	1	322	836887	2	825	inorganic	correct	838799	1	322	836887	841898	1	324	841127	4	419	842348	1	324	841127	846647	1	326	845367	2	618	inorganic	correct	847297	1	326	845367	850246	1	328	849607	4	446	850729	1	328	849607	fax_14883.png	fax_Klebeband.png	fax_Fahrrad.png	ok
65837	07/14/2021 14:34:43	1	35	156371	854394	1	330	853846	857243	1	331	855966	3	302	organic	correct	857576	1	331	855966	861475	1	333	860207	3	887	862391	1	334	862326	864924	1	335	864446	3	1171	organic	correct	866123	1	335	864446	869372	1	337	868686	4	1657	871055	1	338	870806	foe_08236.png	foe_Adler.png	foe_Tannenzapfen.png	ok
65837	07/14/2021 14:35:05	1	36	156371	873271	1	339	872926	876637	1	340	875047	3	328	organic	correct	876986	1	340	875047	881235	1	342	879286	2	848	882118	1	343	881407	886467	1	345	885646	3	1500	organic	correct	887999	1	346	887766	891698	1	347	889887	4	965	892714	1	348	892007	mos_20953.png	mos_Eintagsfliege.png	mos_Traube.png	ok
65837	07/14/2021 14:35:24	1	37	156371	895763	1	349	894126	898862	1	351	898367	2	328	inorganic	correct	899212	1	351	898367	902261	1	352	900486	2	1291	903577	1	353	902606	906243	1	354	904726	3	1879	inorganic	incorrect	908143	1	355	906847	910309	1	356	908966	2	1094	911425	1	357	911086	fab_06018.png	fab_Staubsauger.png	fab_Kinderwagen.png	ok
65837	07/14/2021 14:35:45	1	38	156371	914574	1	358	913206	916540	1	359	915326	2	1098	inorganic	correct	917673	1	360	917446	921321	1	361	919566	4	829	922188	1	362	921687	926053	1	364	925926	2	436	inorganic	correct	926520	1	364	925926	930935	1	366	930167	4	771	931735	1	366	930167	mac_59169.png	mac_Medaille.png	mac_Dartpfeil.png	ok
65837	07/14/2021 14:36:05	1	39	156371	935800	1	368	934406	938033	1	369	936526	2	1273	inorganic	correct	939332	1	370	938646	942281	1	371	940766	2	885	943214	1	372	942886	947379	1	374	947126	2	1391	inorganic	correct	948796	1	374	947126	951478	1	376	951366	4	957	952461	1	376	951366	mao_11634.png	mao_Stempel.png	mao_Kegel.png	ok
65837	07/14/2021 14:36:26	1	40	156371	955410	1	377	953486	958709	1	379	957726	2	2232	organic	incorrect	960975	1	380	959846	963707	1	381	961965	3	1501	965240	1	382	964086	967523	1	383	966206	2	1784	organic	correct	969339	1	384	968326	972621	1	386	972566	4	268	972921	1	386	972566	fou_17118.png	fou_Feige.png	fou_Schmetterling.png	ok
65837	07/14/2021 14:36:47	1	41	156371	976719	1	387	974686	978619	1	388	976805	3	822	inorganic	incorrect	979469	1	389	978926	983634	1	391	983166	2	860	984517	1	391	983166	988482	1	393	987406	3	1843	inorganic	correct	990348	1	394	989526	993330	1	395	991646	2	938	994313	1	396	993765	maj_01545.png	maj_Krawatte.png	maj_Computermaus.png	ok
65837	07/14/2021 14:37:06	1	42	156371	997229	1	397	995886	1000045	1	398	998006	3	440	inorganic	incorrect	1000511	1	399	1000125	1003727	1	400	1002245	2	660	1004410	1	401	1004366	1007376	1	402	1006486	3	1433	inorganic	correct	1008842	1	403	1008605	1012391	1	404	1010725	4	1166	1013590	1	405	1012846	maw_04767.png	maw_Pingpongschlaeger.png	maw_Schlauchboot.png	ok
65837	07/14/2021 14:37:28	1	43	156371	1016839	1	406	1014966	1018672	1	407	1017085	3	540	organic	correct	1019238	1	408	1019206	1023887	1	410	1023445	4	319	1024237	1	410	1023445	1029168	1	412	1027686	2	495	organic	correct	1029685	1	412	1027686	1034617	1	415	1034045	4	615	1035266	1	415	1034045	mou_01862.png	mou_Kraehe.png	mou_Croissant.png	ok
65837	07/14/2021 14:37:46	1	44	156371	1038265	1	416	1036166	1040465	1	418	1040405	2	1687	inorganic	correct	1042197	1	418	1040405	1044147	1	419	1042525	3	1070	1045246	1	420	1044646	1047895	1	421	1046765	2	2575	inorganic	correct	1050495	1	422	1048885	1051744	1	423	1051005	4	1009	1052777	1	423	1051005	mai_06530.png	mai_Gewehr.png	mai_Auto.png	ok
65837	07/14/2021 14:38:07	1	45	156371	1056326	1	425	1055245	1059541	1	427	1059485	3	724	organic	correct	1060291	1	427	1059485	1063890	1	429	1063725	4	691	1064606	1	429	1063725	1067989	1	430	1065845	3	837	organic	correct	1068855	1	431	1067966	1073370	1	433	1072205	4	431	1073837	1	433	1072205	moe_02012.png	moe_Pommes.png	moe_Waschbaer.png	ok
65837	07/14/2021 14:38:28	1	46	156371	1077235	1	435	1076446	1080151	1	436	1078565	2	1135	organic	incorrect	1081317	1	437	1080685	1084966	1	439	1084925	2	422	1085416	1	439	1084925	1089865	1	441	1089165	2	1420	organic	correct	1091331	1	442	1091285	1094030	1	443	1093405	4	1238	1095296	1	443	1093405	mon_65798.png	mon_Kartoffel.png	mon_Fuchs.png	ok
65837	07/14/2021 14:38:49	1	47	156371	1098645	1	445	1097645	1100778	1	446	1099765	3	635	organic	correct	1101444	1	446	1099765	1105209	1	448	1104005	4	401	1105643	1	448	1104005	1110041	1	450	1108245	2	524	organic	correct	1110591	1	451	1110365	1115523	1	453	1114605	4	670	1116222	1	453	1114605	foa_00207.png	foa_Marienkaefer.png	foa_Aubergine.png	ok
65837	07/14/2021 14:39:10	1	48	156371	1119538	1	455	1118845	1121804	1	456	1120965	3	1063	organic	correct	1122903	1	456	1120965	1126419	1	458	1125205	2	896	1127352	1	458	1125205	1130268	1	460	1129445	2	1799	organic	incorrect	1132100	1	461	1131564	1135399	1	462	1133685	3	1782	1137215	1	463	1135805	moh_06446.png	moh_Muecke.png	moh_Birne.png	ok
65837	07/14/2021 14:39:29	1	49	156371	1140514	1	465	1140044	1142763	1	466	1142165	3	501	organic	correct	1143296	1	466	1142165	1146295	1	467	1144285	2	613	1146945	1	468	1146404	1151560	1	470	1150645	2	1500	organic	correct	1153093	1	471	1152765	1155992	1	472	1154884	3	1520	1157542	1	473	1157005	mob_22833.png	mob_Igel.png	mob_Kiwi.png	ok
65837	07/14/2021 14:39:48	1	50	156371	1159574	1	474	1159125	1161474	1	475	1161244	3	899	organic	correct	1162407	1	475	1161244	1164906	1	476	1163364	3	1431	1166372	1	477	1165485	1169538	1	478	1167605	3	1244	organic	correct	1170804	1	479	1169724	1174769	1	481	1173965	4	310	1175102	1	481	1173965	foq_17341.png	foq_Pinguin.png	foq_Fenchel.png	ok
65837	07/14/2021 14:40:07	1	51	156371	1178635	1	483	1178204	1180484	1	484	1180324	2	1070	organic	incorrect	1181584	1	484	1180324	1185316	1	486	1184564	3	715	1186065	1	486	1184564	1189298	1	488	1188804	2	1144	organic	correct	1190481	1	488	1188804	1193946	1	490	1193044	2	1081	1195062	1	490	1193044	for_15880.png	for_Seehund.png	for_Mandel.png	ok
65837	07/14/2021 14:40:27	1	52	156371	1197861	1	492	1197285	1200177	1	493	1199404	3	425	organic	correct	1200627	1	493	1199404	1204509	1	495	1203644	4	318	1204859	1	495	1203644	1208391	1	497	1207884	2	471	organic	correct	1208891	1	497	1207884	1213873	1	499	1212124	4	408	1214306	1	500	1214245	mog_03277.png	mog_Fledermaus.png	mog_Pilz.png	ok
65837	07/14/2021 14:40:47	1	53	156371	1217355	1	501	1216364	1220237	1	502	1218484	3	399	organic	correct	1220670	1	503	1220604	1224986	1	505	1224844	4	611	1225619	1	505	1224844	1229434	1	507	1229084	2	396	organic	correct	1229851	1	507	1229084	1233349	1	508	1231204	4	880	1234266	1	509	1233324	mol_11363.png	mol_Schimpanse.png	mol_Pizza.png	ok
65837	07/14/2021 14:41:07	1	54	156371	1237198	1	510	1235444	1240447	1	512	1239684	3	451	inorganic	incorrect	1240947	1	512	1239684	1244846	1	514	1243924	3	718	1245595	1	514	1243924	1249394	1	516	1248164	3	1184	inorganic	correct	1250610	1	517	1250284	1253709	1	518	1252404	4	637	1254376	1	518	1252404	faj_07849.png	faj_Schuh.png	faj_Parfuem.png	ok
65837	07/14/2021 14:41:27	1	55	156371	1257591	1	520	1256644	1260257	1	521	1258764	3	1510	organic	correct	1261790	1	522	1260884	1264622	1	523	1263004	2	1600	1266255	1	524	1265124	1268471	1	525	1267244	3	968	organic	correct	1269471	1	526	1269363	1272403	1	527	1271484	4	978	1273403	1	527	1271484	mot_69770.png	mot_Bison.png	mot_Hotdog.png	ok
65837	07/14/2021 14:41:50	1	56	156371	1277684	1	529	1275724	1280617	1	531	1279964	3	1686	organic	correct	1282333	1	532	1282084	1285315	1	533	1284203	3	739	1286082	1	533	1284203	1290530	1	535	1288444	3	1079	organic	correct	1291630	1	536	1290564	1295795	1	538	1294804	4	717	1296545	1	538	1294804	foi_05187.png	foi_Pflanze.png	foi_Apfelkuchen.png	ok
65837	07/14/2021 14:42:10	1	57	156371	1299977	1	540	1299044	1302026	1	541	1301163	2	1693	inorganic	correct	1303742	1	542	1303284	1307258	1	543	1305404	3	695	1307991	1	544	1307523	1311740	1	545	1309643	2	698	inorganic	correct	1312473	1	546	1311764	1315505	1	547	1313884	4	417	1315955	1	547	1313884	map_49576.png	map_Globus.png	map_Pfeife.png	ok
65837	07/14/2021 14:42:30	1	58	156371	1320120	1	549	1318123	1322653	1	551	1322363	3	330	organic	correct	1323019	1	551	1322363	1326518	1	552	1324483	4	724	1327268	1	553	1326604	1331633	1	555	1330843	2	537	organic	correct	1332199	1	555	1330843	1335898	1	557	1335084	4	350	1336298	1	557	1335084	mof_06901.png	mof_Hahn.png	mof_Spaghetti.png	ok
65837	07/14/2021 14:42:49	1	59	156371	1339997	1	559	1339323	1343146	1	560	1341443	2	1750	inorganic	correct	1344928	1	561	1343564	1346494	1	562	1345683	2	1119	1347644	1	562	1345683	1349977	1	564	1349923	2	812	inorganic	correct	1350810	1	564	1349923	1355192	1	566	1354163	4	885	1356108	1	566	1354163	faw_14685.png	faw_Kuechenmaschine.png	faw_Hufeisen.png	ok
65837	07/14/2021 14:43:10	1	60	156371	1359390	1	568	1358403	1361373	1	569	1360524	2	1193	organic	incorrect	1362589	1	569	1360524	1364888	1	571	1364763	4	902	1365821	1	571	1364763	1370136	1	573	1369003	2	341	organic	correct	1370503	1	573	1369003	1375201	1	575	1373243	4	257	1375485	1	576	1375364	mom_59641.png	mom_Ei.png	mom_Loewe.png	ok
65837	07/14/2021 14:43:30	1	61	156371	1380416	1	578	1379603	1383015	1	579	1381723	2	413	inorganic	correct	1383465	1	579	1381723	1386731	1	581	1385963	4	1021	1387797	1	581	1385963	1391679	1	583	1390203	2	561	inorganic	correct	1392262	1	583	1390203	1396161	1	585	1394443	4	347	1396544	1	585	1394443	fag_06551.png	fag_Geschenk.png	fag_Portemonnaie.png	ok
65837	07/14/2021 14:43:50	1	62	156371	1399943	1	587	1398683	1402942	1	588	1400803	2	355	inorganic	correct	1403325	1	589	1402923	1407774	1	591	1407163	4	649	1408457	1	591	1407163	1412189	1	593	1411403	3	1451	inorganic	correct	1413672	1	594	1413523	1416171	1	595	1415643	4	687	1416887	1	595	1415643	far_06518.png	far_Giesskanne.png	far_Heissluftballon.png	ok
65837	07/14/2021 14:44:10	1	63	156371	1419920	1	597	1419883	1423452	1	598	1422003	3	1204	inorganic	incorrect	1424685	1	599	1424123	1428200	1	600	1426243	2	540	1428767	1	601	1428363	1431816	1	602	1430482	2	818	inorganic	correct	1432665	1	603	1432603	1436297	1	604	1434723	4	1171	1437514	1	605	1436843	mat_23754.png	mat_Helm.png	mat_Feuerzeug.png	ok
65837	07/14/2021 14:44:32	1	64	156371	1440696	1	606	1438962	1444012	1	608	1443203	3	1033	organic	correct	1445078	1	608	1443203	1449060	1	610	1447442	4	759	1449843	1	611	1449563	1454125	1	613	1453802	3	1832	organic	correct	1455991	1	614	1455922	1458690	1	615	1458043	3	575	1459290	1	615	1458043	moj_11860.png	moj_Walnuss.png	moj_Blatt.png	ok
65837	07/14/2021 14:44:53	1	65	156371	1462389	1	617	1462282	1464788	1	618	1464403	2	2360	inorganic	correct	1467170	1	619	1466523	1469120	1	620	1468642	4	1390	1470536	1	620	1468642	1474168	1	622	1472883	3	984	inorganic	correct	1475184	1	623	1475003	1478750	1	624	1477122	4	451	1479233	1	624	1477122	mae_36426.png	mae_Taschenrechner.png	mae_Schach.png	ok
65837	07/14/2021 14:45:14	1	66	156371	1483232	1	626	1481363	1486164	1	628	1485602	2	1095	inorganic	correct	1487297	1	628	1485602	1490463	1	630	1489843	4	435	1490929	1	630	1489843	1494744	1	632	1494082	2	564	inorganic	correct	1495344	1	632	1494082	1499060	1	634	1498323	4	665	1499759	1	634	1498323	fan_18894.png	fan_Klavier.png	fan_Lampe.png	ok
65837	07/14/2021 14:45:33	1	67	156371	1504108	1	636	1502562	1505724	1	637	1504683	3	1469	organic	correct	1507224	1	638	1506802	1510222	1	639	1508922	2	919	1511172	1	640	1511042	1514221	1	641	1513163	3	1682	organic	correct	1515937	1	642	1515282	1518953	1	643	1517402	4	1204	1520186	1	644	1519522	fop_07937.png	fop_Mango.png	fop_Koala.png	ok
65837	07/14/2021 14:45:56	1	68	156371	1523551	1	645	1521643	1525367	1	646	1523762	2	698	inorganic	correct	1526100	1	647	1525882	1530666	1	649	1530122	4	265	1530965	1	649	1530122	1535914	1	651	1534362	3	1026	inorganic	correct	1536980	1	652	1536482	1541079	1	654	1540722	4	334	1541445	1	654	1540722	mak_03979.png	mak_Rucksack.png	mak_Socken.png	ok
65837	07/14/2021 14:46:17	1	69	156371	1545877	1	656	1544962	1549293	1	658	1549202	3	2145	inorganic	incorrect	1551475	1	659	1551322	1553475	1	660	1553442	2	976	1554474	1	660	1553442	1557157	1	661	1555562	2	1304	inorganic	correct	1558490	1	662	1557682	1562155	1	664	1561922	2	1283	1563471	1	664	1561922	fat_14140.png	fat_Einkaufswagen.png	fat_Kleiderbuegel.png	ok
65837	07/14/2021 14:46:37	1	70	156371	1567387	1	666	1566162	1569752	1	667	1568281	3	2110	inorganic	incorrect	1571885	1	668	1570402	1574018	1	669	1572522	2	1573	1575617	1	670	1574642	1578549	1	671	1576761	2	807	inorganic	correct	1579382	1	672	1578882	1582381	1	673	1581002	4	1250	1583681	1	674	1583122	fai_07637.png	fai_Kommode.png	fai_Foehn.png	ok
65837	07/14/2021 14:46:57	1	71	156371	1587047	1	675	1585242	1589629	1	677	1589482	2	412	inorganic	correct	1590062	1	677	1589482	1594261	1	679	1593722	4	291	1594577	1	679	1593722	1599109	1	681	1597962	3	780	inorganic	correct	1599926	1	681	1597962	1603874	1	683	1602202	4	394	1604291	1	683	1602202	mas_41937.png	mas_Bueroklammer.png	mas_Tisch.png	ok
65837	07/14/2021 14:47:18	1	72	156371	1607323	1	685	1606442	1609539	1	686	1608561	3	952	organic	correct	1610522	1	686	1608561	1614837	1	688	1612802	3	309	1615170	1	689	1614921	1618419	1	690	1617041	3	1565	organic	correct	1620019	1	691	1619162	1623684	1	693	1623401	3	268	1623984	1	693	1623401	fov_15193.png	fov_Fisch.png	fov_Zucchini.png	ok
65837	07/14/2021 14:47:35	1	73	156371	1628099	1	695	1627642	1631348	1	696	1629761	2	272	inorganic	correct	1631648	1	696	1629761	1634814	1	698	1634001	4	879	1635747	1	698	1634001	1638246	1	699	1636122	2	564	inorganic	correct	1638846	1	700	1638241	1642111	1	701	1640361	4	563	1642711	1	702	1642482	fal_07977.png	fal_Buegeleisen.png	fal_Korb.png	ok
65837	07/14/2021 14:47:56	1	74	156371	1645460	1	703	1644602	1648992	1	705	1648841	2	972	inorganic	correct	1649992	1	705	1648841	1653774	1	707	1653081	3	1696	1655507	1	708	1655201	1658356	1	709	1657321	2	2053	inorganic	incorrect	1660438	1	710	1659442	1662554	1	711	1661561	2	944	1663521	1	711	1661561	mal_20552.png	mal_Kugelschreiber.png	mal_Drucker.png	ok
65837	07/14/2021 14:48:17	1	75	156371	1666753	1	713	1665801	1668936	1	714	1667922	3	460	organic	correct	1669419	1	714	1667922	1673534	1	716	1672161	2	571	1674134	1	716	1672161	1678232	1	718	1676401	3	1364	organic	incorrect	1679632	1	719	1678521	1682781	1	720	1680641	4	918	1683747	1	721	1682762	fok_09860.png	fok_Palme.png	fok_Kaenguruh.png	ok
65837	07/14/2021 14:48:38	1	76	156371	1687579	1	723	1687001	1689329	1	724	1689121	3	392	organic	correct	1689745	1	724	1689121	1694344	1	726	1693361	4	299	1694677	1	726	1693361	1699159	1	728	1697601	2	476	organic	correct	1699658	1	728	1697601	1704074	1	731	1703961	4	377	1704474	1	731	1703961	foc_02664.png	foc_Eule.png	foc_Brombeere.png	ok
65837	07/14/2021 14:48:58	1	77	156371	1708422	1	733	1708201	1711771	1	734	1710321	3	1110	inorganic	incorrect	1712904	1	735	1712441	1716719	1	737	1716681	3	748	1717502	1	737	1716681	1720102	1	738	1718801	3	1760	inorganic	correct	1721884	1	739	1720921	1724617	1	740	1723041	4	415	1725067	1	740	1723041	mau_58144.png	mau_Wasserventil.png	mau_Leiter.png	ok
65837	07/14/2021 14:49:20	1	78	156371	1728615	1	742	1727281	1730931	1	743	1729400	3	274	organic	correct	1731248	1	743	1729400	1735263	1	745	1733641	4	615	1735913	1	746	1735761	1740211	1	748	1740001	2	429	organic	correct	1740661	1	748	1740001	1745476	1	750	1744241	4	421	1745926	1	750	1744241	fot_06092.png	fot_Taube.png	fot_Salat.png	ok
65837	07/14/2021 14:49:40	1	79	156371	1749975	1	752	1748481	1752207	1	753	1750601	3	1715	organic	correct	1753957	1	754	1752720	1757256	1	756	1756961	2	2032	1759322	1	757	1759081	1760904	1	757	1759081	3	1768	organic	correct	1762704	1	758	1761200	1765370	1	759	1763321	4	1232	1766636	1	760	1765441	foj_08937.png	foj_Waffel.png	foj_Rose.png	ok
65837	07/14/2021 14:50:00	1	80	156371	1770601	1	762	1769680	1772700	1	763	1771801	2	724	inorganic	correct	1773450	1	763	1771801	1777665	1	765	1776040	4	676	1778365	1	766	1778160	1781497	1	767	1780281	2	593	inorganic	correct	1782131	1	767	1780281	1785413	1	769	1784520	4	620	1786063	1	769	1784520	fac_02970.png	fac_Ohrring.png	fac_Haarbuerste.png	ok
65837	07/14/2021 14:50:18	1	81	156371	1789861	1	771	1788761	1791977	1	772	1790881	3	1608	organic	correct	1793610	1	773	1793000	1795459	1	774	1795120	2	1003	1796492	1	774	1795120	1799791	1	776	1799360	3	1057	organic	correct	1800874	1	776	1799360	1805073	1	778	1803600	4	871	1805973	1	779	1805721	mos_23223.png	mos_Traube.png	mos_Eintagsfliege.png	ok
65837	07/14/2021 14:50:39	1	82	156371	1808505	1	780	1807840	1811937	1	781	1809960	3	1497	inorganic	incorrect	1813470	1	782	1812081	1815836	1	783	1814200	2	903	1816769	1	784	1816320	1819601	1	785	1818440	3	1389	inorganic	correct	1821017	1	786	1820561	1824316	1	787	1822680	3	357	1824700	1	787	1822680	fax_15310.png	fax_Fahrrad.png	fax_Klebeband.png	ok
65837	07/14/2021 14:51:00	1	83	156371	1829348	1	790	1829041	1832813	1	791	1831160	3	1132	inorganic	incorrect	1833980	1	792	1833280	1837629	1	794	1837520	2	568	1838228	1	794	1837520	1841527	1	795	1839640	3	968	inorganic	correct	1842527	1	796	1841760	1846742	1	798	1846000	4	698	1847475	1	798	1846000	fap_17119.png	fap_Knopf.png	fap_Kissen.png	ok
65837	07/14/2021 14:51:23	1	84	156371	1850391	1	800	1850240	1853390	1	801	1852360	3	341	organic	correct	1853756	1	801	1852360	1858505	1	803	1856600	4	428	1858955	1	804	1858720	1863820	1	806	1862960	3	1119	organic	correct	1864969	1	806	1862960	1869118	1	808	1867200	3	528	1869668	1	809	1869320	foe_08514.png	foe_Tannenzapfen.png	foe_Adler.png	ok
65837	07/14/2021 14:51:43	1	85	156371	1873766	1	811	1873560	1876515	1	812	1875679	2	2341	inorganic	correct	1878898	1	813	1877800	1880881	1	814	1879920	2	840	1881764	1	814	1879920	1884729	1	816	1884159	3	1158	inorganic	correct	1885912	1	816	1884159	1890011	1	818	1888400	4	321	1890361	1	818	1888400	mao_19000.png	mao_Kegel.png	mao_Stempel.png	ok
65837	07/14/2021 14:52:03	1	86	156371	1893826	1	820	1892640	1896159	1	821	1894760	3	1323	inorganic	incorrect	1897508	1	822	1896880	1899907	1	823	1898999	2	676	1900607	1	823	1898999	1904073	1	825	1903240	2	918	inorganic	correct	1905022	1	825	1903240	1909488	1	827	1907479	3	491	1910004	1	828	1909600	mac_59752.png	mac_Dartpfeil.png	mac_Medaille.png	ok
65837	07/14/2021 14:52:23	1	87	156371	1913336	1	829	1911720	1915469	1	830	1913839	2	677	inorganic	correct	1916169	1	831	1915959	1920634	1	833	1920200	2	1090	1921750	1	833	1920200	1925299	1	835	1924439	3	971	inorganic	incorrect	1926299	1	835	1924439	1930064	1	837	1928680	4	725	1930830	1	837	1928680	fab_06286.png	fab_Kinderwagen.png	fab_Staubsauger.png	ok
65837	07/14/2021 14:52:45	1	88	156371	1933463	1	839	1932919	1936878	1	840	1935040	3	298	organic	correct	1937212	1	841	1937159	1941460	1	843	1941400	4	539	1942027	1	843	1941400	1946292	1	845	1945639	3	712	organic	correct	1947025	1	845	1945639	1951573	1	847	1949880	4	503	1952107	1	848	1952000	fou_18966.png	fou_Schmetterling.png	fou_Feige.png	ok
65837	07/14/2021 14:53:04	1	89	156371	1955255	1	849	1954119	1958404	1	851	1958360	2	370	inorganic	correct	1958804	1	851	1958360	1962770	1	853	1962599	4	627	1963419	1	853	1962599	1966718	1	854	1964719	2	425	inorganic	correct	1967168	1	855	1966840	1970817	1	856	1968959	4	1403	1972250	1	857	1971079	maw_22459.png	maw_Schlauchboot.png	maw_Pingpongschlaeger.png	ok
65837	07/14/2021 14:53:25	1	90	156371	1974666	1	858	1973199	1976831	1	859	1975319	2	340	inorganic	correct	1977215	1	859	1975319	1981946	1	862	1981680	4	285	1982263	1	862	1981680	1986412	1	864	1985919	2	542	inorganic	correct	1986978	1	864	1985919	1990127	1	865	1988039	4	660	1990810	1	866	1990160	mai_23761.png	mai_Auto.png	mai_Gewehr.png	ok
65837	07/14/2021 14:53:48	1	91	156371	1995092	1	868	1994399	1998124	1	869	1996519	3	993	organic	correct	1999141	1	870	1998639	2003306	1	872	2002879	4	349	2003689	1	872	2002879	2008471	1	874	2007119	2	445	organic	correct	2008937	1	874	2007119	2012619	1	876	2011359	4	532	2013186	1	876	2011359	mou_06524.png	mou_Croissant.png	mou_Kraehe.png	ok
65837	07/14/2021 14:54:09	1	92	156371	2017934	1	879	2017719	2020367	1	880	2019839	3	1036	inorganic	incorrect	2021433	1	880	2019839	2025665	1	882	2024079	2	516	2026215	1	882	2024079	2030047	1	884	2028319	2	1475	inorganic	correct	2031546	1	885	2030439	2035178	1	887	2034679	3	1641	2036845	1	888	2036798	maj_01546.png	maj_Computermaus.png	maj_Krawatte.png	ok
65837	07/14/2021 14:54:28	1	93	156371	2039410	1	889	2038919	2041643	1	890	2041039	3	1914	organic	correct	2043592	1	891	2043159	2046075	1	892	2045278	2	835	2046941	1	892	2045278	2050490	1	894	2049519	2	985	organic	correct	2051506	1	894	2049519	2054322	1	896	2053758	4	1232	2055588	1	896	2053758	foa_00426.png	foa_Aubergine.png	foa_Marienkaefer.png	ok
65837	07/14/2021 14:54:48	1	94	156371	2058254	1	898	2057999	2060620	1	899	2060118	3	1032	organic	correct	2061686	1	899	2060118	2064802	1	901	2064359	2	1521	2066351	1	901	2064359	2069217	1	903	2068598	2	1656	organic	correct	2070900	1	904	2070719	2073366	1	905	2072839	4	922	2074315	1	905	2072839	moh_07125.png	moh_Birne.png	moh_Muecke.png	ok
65837	07/14/2021 14:55:09	1	95	156371	2078314	1	907	2077078	2079963	1	908	2079199	3	566	organic	correct	2080563	1	908	2079199	2084662	1	910	2083438	4	834	2085528	1	910	2083438	2089227	1	912	2087679	3	605	organic	correct	2089860	1	913	2089799	2094508	1	915	2094038	4	510	2095042	1	915	2094038	moe_23630.png	moe_Waschbaer.png	moe_Pommes.png	ok
65837	07/14/2021 14:55:30	1	96	156371	2099773	1	917	2098278	2101656	1	918	2100398	3	1604	organic	correct	2103289	1	919	2102518	2106671	1	920	2104639	4	493	2107187	1	921	2106758	2110520	1	922	2108878	3	702	organic	correct	2111253	1	923	2110999	2115135	1	924	2113119	4	304	2115468	1	925	2115238	mon_69587.png	mon_Fuchs.png	mon_Kartoffel.png	ok
