ID	DateTime	Run	Delayed_Retrieval_Trial	First_Pulse_Time	FaceRecog_OnsetTime	FaceRecog_OnsetTimeUncertainty	FaceRecog_fMRI_Pulse	FaceRecog_fMRI_PulseTime	Assoc_Retrieval_OnsetTime	Assoc_Retrieval_OnsetTimeUncertainty	Assoc_Retrieval_fMRI_Pulse	Assoc_Retrieval_fMRI_PulseTime	Assoc_Retrieval_Pressed_Button	Assoc_Retrieval_RT	Assoc_Retrieval_Response_Category	Assoc_Retrieval_Accuracy	Assoc_Retrieval_Feedback_OnsetTime	Assoc_Retrieval_Feedback_OnsetTimeUncertainty	Assoc_Retrieval_Feedback_fMRI_Pulse	Assoc_Retrieval_Feedback_fMRI_PulseTime	Retrieval_consc_Rating_OnsetTime	Retrieval_consc_Rating_OnsetTimeUncertainty	Retrieval_consc_Rating_fMRI_Pulse	Retrieval_consc_Rating_fMRI_PulseTime	Retrieval_consc_Rating_Pressed_Button	Retrieval_consc_Rating_RT	Retrieval_consc_Rating_Feedback_OnsetTime	Retrieval_consc_Rating_Feedback_OnsetTimeUncertainty	Retrieval_consc_Rating_Feedback_fMRI_Pulse	Retrieval_consc_Rating_Feedback_fMRI_PulseTime	ForcedChoice_OnsetTime	ForcedChoice_OnsetTimeUncertainty	ForcedChoice_fMRI_Pulse	ForcedChoice_fMRI_PulseTime	ForcedChoice_Pressed_Button	ForcedChoice_RT	ForcedChoice_Response_Category	ForcedChoice_Accuracy	ForcedChoice_Feedback_OnsetTime	ForcedChoice_Feedback_OnsetTimeUncertainty	ForcedChoice_Feedback_fMRI_Pulse	ForcedChoice_Feedback_fMRI_PulseTime	Recognition_consc_Rating_OnsetTime	Recognition_consc_Rating_OnsetTimeUncertainty	Recognition_consc_Rating_fMRI_Pulse	Recognition_consc_Rating_fMRI_PulseTime	Recognition_consc_Rating_Pressed_Button	Recognition_consc_Rating_RT	Recognition_consc_Rating_Feedback_OnsetTime	Recognition_consc_Rating_Feedback_OnsetTimeUncertainty	Recognition_consc_Rating_Feedback_fMRI_Pulse	Recognition_consc_Rating_Feedback_fMRI_PulseTime	Presented_Person	Presented_Target	Presented_Lure	TrialStatus
66287	09/15/2021 14:13:05	1	1	47594	63361	1	6	61091	65511	1	7	63793	3	946	inorganic	incorrect	66477	1	7	63793	69176	1	8	66493	4	1172	70376	1	9	69193	74474	1	10	71893	2	947	inorganic	correct	75457	1	11	74593	79106	1	12	77293	4	684	79822	1	12	77293	map_41499.png	map_Pfeife.png	map_Globus.png	ok
66287	09/15/2021 14:13:24	1	2	47594	83071	1	14	82693	85670	1	15	85393	2	1271	organic	incorrect	86970	1	15	85393	89086	1	16	88093	2	937	90052	1	16	88093	92918	1	17	90793	3	2201	organic	correct	95151	1	18	93493	98050	1	19	96193	2	1753	99832	1	20	98893	mon_65798.png	mon_Fuchs.png	mon_Kartoffel.png	ok
66287	09/15/2021 14:13:44	1	3	47594	101715	1	21	101593	103398	1	21	101593	3	1226	inorganic	incorrect	104647	1	22	104293	107880	1	23	106993	3	1462	109362	1	23	106993	112811	1	25	112393	2	2106	inorganic	incorrect	114944	1	25	112393	116793	1	26	115093	2	911	117726	1	26	115093	fai_07494.png	fai_Kommode.png	fai_Foehn.png	ok
66287	09/15/2021 14:14:04	1	4	47594	121742	1	28	120493	124357	1	29	123193	3	1318	inorganic	incorrect	125707	1	29	123193	127923	1	30	125892	2	770	128723	1	31	128593	132505	1	32	131293	2	1737	inorganic	incorrect	134271	1	33	133992	136570	1	33	133992	2	861	137453	1	34	136693	faw_14215.png	faw_Hufeisen.png	faw_Kuechenmaschine.png	ok
66287	09/15/2021 14:14:24	1	5	47594	141718	1	35	139393	144334	1	36	142092	2	1356	organic	incorrect	145717	1	37	144793	149466	1	38	147493	2	532	150032	1	38	147493	152814	1	39	150192	2	1513	organic	correct	154347	1	40	152893	156846	1	41	155593	4	1296	158179	1	41	155593	for_15187.png	for_Mandel.png	for_Seehund.png	ok
66287	09/15/2021 14:14:44	1	6	47594	161995	1	43	160993	163611	1	43	160993	3	1469	inorganic	incorrect	165110	1	44	163692	167943	1	45	166392	2	1206	169176	1	46	169093	172374	1	47	171792	2	2191	inorganic	correct	174590	1	48	174492	177423	1	49	177193	2	843	178289	1	49	177193	fag_06539.png	fag_Geschenk.png	fag_Portemonnaie.png	ok
66287	09/15/2021 14:15:06	1	7	47594	181605	1	50	179892	184870	1	51	182592	2	680	organic	incorrect	185587	1	52	185293	189285	1	53	187992	3	1434	190752	1	54	190692	193767	1	55	193393	2	2598	organic	incorrect	196400	1	56	196092	199115	1	57	198792	2	1459	200598	1	57	198792	fou_17118.png	fou_Schmetterling.png	fou_Feige.png	ok
66287	09/15/2021 14:15:28	1	8	47594	203897	1	58	201493	206263	1	59	204192	2	1549	inorganic	correct	207846	1	60	206892	211128	1	61	209593	2	529	211678	1	61	209593	215493	1	63	214992	2	2013	inorganic	correct	217526	1	63	214992	220558	1	65	220392	3	277	220875	1	65	220392	fat_12032.png	fat_Kleiderbuegel.png	fat_Einkaufswagen.png	ok
66287	09/15/2021 14:15:47	1	9	47594	225606	1	66	223092	228405	1	67	225792	2	1872	inorganic	correct	230305	1	68	228492	232771	1	69	231192	2	257	233054	1	69	231192	237369	1	71	236592	2	1288	inorganic	correct	238685	1	71	236592	241068	1	72	239292	4	1415	242517	1	73	241992	fab_06018.png	fab_Staubsauger.png	fab_Kinderwagen.png	ok
66287	09/15/2021 14:16:07	1	10	47594	245050	1	74	244692	248165	1	75	247392	3	1475	organic	correct	249665	1	75	247392	252364	1	76	250092	2	579	252980	1	77	252792	256346	1	78	255492	2	1940	organic	correct	258312	1	79	258192	260811	1	79	258192	3	1005	261844	1	80	260892	fov_15046.png	fov_Fisch.png	fov_Zucchini.png	ok
66287	09/15/2021 14:16:29	1	11	47594	264960	1	81	263592	266859	1	82	266292	2	1788	organic	incorrect	268675	1	82	266292	271558	1	83	268992	3	1409	272990	1	84	271691	276573	1	85	274392	2	730	organic	correct	277322	1	86	277092	280938	1	87	279791	4	544	281504	1	87	279791	fop_00621.png	fop_Mango.png	fop_Koala.png	ok
66287	09/15/2021 14:16:49	1	12	47594	286219	1	89	285192	287869	1	89	285192	2	992	inorganic	correct	288885	1	90	287891	291534	1	91	290592	4	584	292151	1	91	290592	296766	1	93	295991	2	746	inorganic	correct	297532	1	93	295991	301048	1	94	298692	4	649	301731	1	95	301392	fap_16329.png	fap_Knopf.png	fap_Kissen.png	ok
66287	09/15/2021 14:17:11	1	13	47594	306162	1	96	304091	309711	1	98	309492	3	565	organic	correct	310311	1	98	309492	313710	1	99	312191	3	1051	314793	1	99	312191	318442	1	101	317591	3	1884	organic	correct	320374	1	102	320291	323123	1	103	322992	3	620	323773	1	103	322992	mog_03090.png	mog_Fledermaus.png	mog_Pilz.png	ok
66287	09/15/2021 14:17:29	1	14	47594	328288	1	104	325691	329988	1	105	328391	3	885	organic	correct	330904	1	105	328391	334136	1	107	333791	4	335	334503	1	107	333791	338418	1	108	336491	3	791	organic	correct	339235	1	109	339192	342767	1	110	341891	4	303	343100	1	110	341891	mou_01862.png	mou_Kraehe.png	mou_Croissant.png	ok
66287	09/15/2021 14:17:48	1	15	47594	346832	1	111	344591	348398	1	112	347292	2	1424	organic	incorrect	349848	1	112	347292	352980	1	114	352691	2	232	353247	1	114	352691	356412	1	115	355392	3	1605	organic	correct	358045	1	115	355392	361194	1	117	360791	3	251	361477	1	117	360791	fok_09378.png	fok_Palme.png	fok_Kaenguruh.png	ok
66287	09/15/2021 14:18:07	1	16	47594	365176	1	118	363492	367275	1	119	366191	2	1716	organic	incorrect	369041	1	120	368891	371140	1	120	368891	2	1832	373007	1	121	371591	374823	1	122	374291	3	1944	organic	correct	376789	1	122	374291	379338	1	123	376991	4	600	379971	1	124	379691	moe_02012.png	moe_Waschbaer.png	moe_Pommes.png	ok
66287	09/15/2021 14:18:27	1	17	47594	384503	1	125	382391	386369	1	126	385091	2	1882	inorganic	correct	388285	1	127	387791	391134	1	128	390491	2	797	391967	1	128	390491	395016	1	129	393191	2	1417	inorganic	incorrect	396465	1	130	395891	399981	1	131	398591	3	1284	401297	1	131	398591	mal_04470.png	mal_Drucker.png	mal_Kugelschreiber.png	ok
66287	09/15/2021 14:18:46	1	18	47594	404229	1	133	403991	406578	1	133	403991	3	1274	inorganic	incorrect	407878	1	134	406691	410177	1	135	409391	2	289	410494	1	135	409391	414909	1	137	414791	2	1907	inorganic	incorrect	416842	1	137	414791	418908	1	138	417491	2	1307	420257	1	139	420191	mak_00987.png	mak_Rucksack.png	mak_Socken.png	ok
66287	09/15/2021 14:19:05	1	19	47594	423873	1	140	422891	426272	1	141	425590	2	1942	inorganic	correct	428238	1	141	425590	430054	1	142	428291	2	1108	431187	1	143	430991	434669	1	144	433690	3	2217	inorganic	correct	436918	1	145	436391	438468	1	145	436391	4	971	439467	1	146	439091	mau_49693.png	mau_Wasserventil.png	mau_Leiter.png	ok
66287	09/15/2021 14:19:25	1	20	47594	442916	1	147	441790	444599	1	148	444491	3	1668	inorganic	incorrect	446298	1	148	444491	448947	1	149	447191	2	351	449331	1	149	447191	453329	1	151	452591	2	1567	inorganic	correct	454929	1	151	452591	458827	1	153	457990	4	1069	459927	1	153	457990	fal_07906.png	fal_Korb.png	fal_Buegeleisen.png	ok
66287	09/15/2021 14:19:45	1	21	47594	462660	1	154	460691	464825	1	155	463391	2	1316	organic	incorrect	466175	1	156	466090	469241	1	157	468791	2	378	469657	1	157	468791	473089	1	158	471490	2	2280	organic	correct	475389	1	159	474190	478604	1	160	476891	4	379	479004	1	160	476891	foc_02157.png	foc_Brombeere.png	foc_Eule.png	ok
66287	09/15/2021 14:20:06	1	22	47594	482469	1	162	482290	485485	1	163	484991	2	351	inorganic	correct	485868	1	163	484991	489834	1	164	487690	2	256	490117	1	164	487690	494982	1	166	493091	2	1618	inorganic	incorrect	496631	1	167	495790	499947	1	168	498490	3	248	500230	1	168	498490	maw_04767.png	maw_Pingpongschlaeger.png	maw_Schlauchboot.png	ok
66287	09/15/2021 14:20:27	1	23	47594	503512	1	169	501191	506295	1	170	503890	2	1504	inorganic	correct	507828	1	171	506590	511326	1	172	509291	3	1796	513159	1	173	511990	516558	1	174	514690	3	1971	inorganic	correct	518574	1	175	517390	520890	1	176	520090	3	1765	522689	1	176	520090	mac_59169.png	mac_Medaille.png	mac_Dartpfeil.png	ok
66287	09/15/2021 14:20:49	1	24	47594	524239	1	177	522790	527704	1	178	525490	3	1678	inorganic	incorrect	529404	1	179	528190	532952	1	179	528190	2	1132	534119	1	180	533590	537951	1	181	536290	3	1717	inorganic	incorrect	539700	1	182	538990	542966	1	183	541690	2	624	543615	1	183	541690	far_00736.png	far_Heissluftballon.png	far_Giesskanne.png	ok
66287	09/15/2021 14:21:06	1	25	47594	546398	1	184	544390	548630	1	185	547090	2	1800	organic	incorrect	550463	1	186	549790	552529	1	187	552490	2	545	553096	1	187	552490	555945	1	188	555190	3	1593	organic	correct	557561	1	188	555190	560293	1	189	557890	2	1811	562126	1	190	560590	moh_06446.png	moh_Birne.png	moh_Muecke.png	ok
66287	09/15/2021 14:21:26	1	26	47594	564108	1	191	563289	565858	1	191	563289	3	2311	organic	correct	568207	1	192	565990	569607	1	193	568690	2	1037	570673	1	193	568690	574488	1	195	574090	3	2417	organic	incorrect	576937	1	196	576790	579753	1	197	579489	2	294	580070	1	197	579489	foa_00207.png	foa_Marienkaefer.png	foa_Aubergine.png	ok
66287	09/15/2021 14:21:44	1	27	47594	583868	1	198	582190	586951	1	199	584890	2	1443	inorganic	correct	588417	1	200	587589	590999	1	201	590290	2	248	591283	1	201	590290	594648	1	202	592990	2	1805	inorganic	incorrect	596481	1	203	595689	598514	1	204	598390	2	1007	599547	1	204	598390	mao_11634.png	mao_Stempel.png	mao_Kegel.png	ok
66287	09/15/2021 14:22:05	1	28	47594	601946	1	205	601090	604312	1	206	603789	3	945	organic	correct	605278	1	206	603789	609160	1	207	606490	3	297	609493	1	208	609190	613525	1	209	611889	3	1406	organic	correct	614975	1	210	614590	618373	1	211	617289	3	374	618773	1	211	617289	foj_08220.png	foj_Waffel.png	foj_Rose.png	ok
66287	09/15/2021 14:22:24	1	29	47594	622689	1	212	619989	624305	1	213	622690	2	1917	organic	incorrect	626254	1	214	625389	628703	1	215	628089	2	827	629553	1	215	628089	633202	1	216	630790	2	1804	organic	correct	635034	1	217	633489	638350	1	218	636189	4	241	638617	1	218	636189	moj_11821.png	moj_Walnuss.png	moj_Blatt.png	ok
66287	09/15/2021 14:22:44	1	30	47594	642115	1	220	641589	643748	1	220	641589	2	1754	organic	incorrect	645531	1	221	644289	647930	1	222	646990	2	839	648796	1	222	646990	651945	1	223	649689	2	1986	organic	correct	653961	1	224	652389	657494	1	225	655090	2	221	657743	1	225	655090	mot_69374.png	mot_Hotdog.png	mot_Bison.png	ok
66287	09/15/2021 14:23:04	1	31	47594	661326	1	227	660489	664325	1	228	663189	2	1712	inorganic	correct	666074	1	229	665889	669473	1	230	668589	2	697	670206	1	230	668589	672988	1	231	671289	3	1836	inorganic	incorrect	674854	1	232	673989	678137	1	233	676689	3	1481	679653	1	234	679389	mai_06530.png	mai_Auto.png	mai_Gewehr.png	ok
66287	09/15/2021 14:23:25	1	32	47594	681485	1	234	679389	683768	1	235	682089	3	590	organic	correct	684384	1	235	682089	688533	1	237	687489	2	411	688966	1	237	687489	692682	1	238	690189	3	2321	organic	incorrect	695031	1	239	692889	698013	1	240	695589	3	284	698330	1	241	698289	fot_00797.png	fot_Salat.png	fot_Taube.png	ok
66287	09/15/2021 14:23:45	1	33	47594	702495	1	242	700989	704461	1	243	703689	2	1432	inorganic	correct	705927	1	243	703689	709543	1	245	709089	4	842	710409	1	245	709089	713508	1	246	711789	2	759	inorganic	correct	714308	1	246	711789	718073	1	248	717188	4	703	718806	1	248	717188	mat_23275.png	mat_Helm.png	mat_Feuerzeug.png	ok
66287	09/15/2021 14:24:04	1	34	47594	723121	1	250	722589	724837	1	250	722589	2	1358	organic	incorrect	726220	1	251	725288	729103	1	252	727989	2	1289	730419	1	252	727989	732868	1	253	730689	2	1596	organic	correct	734484	1	254	733388	737916	1	255	736089	4	234	738183	1	255	736089	mos_20953.png	mos_Eintagsfliege.png	mos_Traube.png	ok
66287	09/15/2021 14:24:25	1	35	47594	741565	1	257	741488	743914	1	257	741488	2	1376	inorganic	correct	745314	1	258	744189	748046	1	259	746889	2	615	748696	1	259	746889	753228	1	261	752289	3	1980	inorganic	incorrect	755244	1	262	754989	757193	1	262	754989	2	917	758143	1	263	757688	mae_01010.png	mae_Schach.png	mae_Taschenrechner.png	ok
66287	09/15/2021 14:24:44	1	36	47594	762508	1	264	760389	764841	1	265	763088	3	1797	organic	correct	766673	1	266	765788	769422	1	267	768489	2	1032	770489	1	267	768489	772805	1	268	771188	2	1510	organic	correct	774337	1	269	773888	777370	1	270	776589	2	846	778236	1	270	776589	foi_03389.png	foi_Pflanze.png	foi_Apfelkuchen.png	ok
66287	09/15/2021 14:25:05	1	37	47594	782135	1	272	781988	785217	1	273	784689	2	697	organic	incorrect	785950	1	273	784689	789382	1	274	787388	4	255	789665	1	274	787388	793098	1	276	792789	3	2002	organic	incorrect	795130	1	276	792789	797180	1	277	795488	3	930	798146	1	277	795488	mom_59361.png	mom_Ei.png	mom_Loewe.png	ok
66287	09/15/2021 14:25:26	1	38	47594	802311	1	279	800889	805077	1	280	803588	2	662	inorganic	correct	805760	1	280	803588	810159	1	282	808988	3	1709	811908	1	283	811688	814640	1	284	814388	3	1025	inorganic	correct	815690	1	284	814388	819339	1	285	817088	4	743	820105	1	286	819788	fan_17286.png	fan_Lampe.png	fan_Klavier.png	ok
66287	09/15/2021 14:25:46	1	39	47594	823904	1	287	822488	825553	1	288	825188	3	866	organic	correct	826453	1	288	825188	829552	1	289	827888	2	1745	831318	1	290	830588	834150	1	291	833288	2	1380	organic	incorrect	835550	1	291	833288	839299	1	293	838688	3	310	839632	1	293	838688	foq_16799.png	foq_Fenchel.png	foq_Pinguin.png	ok
66287	09/15/2021 14:26:06	1	40	47594	844014	1	294	841388	845647	1	295	844088	2	584	organic	incorrect	846263	1	295	844088	850462	1	297	849488	2	874	851361	1	297	849488	854977	1	299	854888	3	1656	organic	correct	856659	1	299	854888	860242	1	300	857588	4	471	860741	1	301	860288	mol_07679.png	mol_Schimpanse.png	mol_Pizza.png	ok
66287	09/15/2021 14:26:27	1	41	47594	864140	1	302	862987	866073	1	303	865688	2	1785	inorganic	correct	867889	1	303	865688	870122	1	304	868388	2	1231	871388	1	305	871087	874853	1	306	873788	3	1942	inorganic	correct	876819	1	307	876488	879635	1	308	879187	3	1036	880701	1	308	879187	mas_41366.png	mas_Bueroklammer.png	mas_Tisch.png	ok
66287	09/15/2021 14:26:48	1	42	47594	884317	1	309	881888	886233	1	310	884588	3	1218	organic	correct	887482	1	311	887287	890548	1	312	889988	2	1059	891631	1	312	889988	894697	1	313	892688	3	1788	organic	correct	896513	1	314	895387	900211	1	315	898088	2	262	900495	1	315	898088	mof_02408.png	mof_Hahn.png	mof_Spaghetti.png	ok
66287	09/15/2021 14:27:07	1	43	47594	905176	1	317	903487	908209	1	318	906188	3	1168	inorganic	incorrect	909408	1	319	908887	911891	1	320	911587	3	1031	912974	1	320	911587	916922	1	321	914288	3	1845	inorganic	correct	918788	1	322	916987	921304	1	323	919687	4	631	921971	1	323	919687	fac_02146.png	fac_Haarbuerste.png	fac_Ohrring.png	ok
66287	09/15/2021 14:27:26	1	44	47594	925103	1	324	922388	928019	1	326	927787	3	321	organic	correct	928369	1	326	927787	931717	1	327	930488	4	854	932600	1	327	930488	935383	1	328	933187	2	613	organic	correct	936016	1	329	935887	939315	1	330	938588	4	473	939815	1	330	938588	mob_00760.png	mob_Igel.png	mob_Kiwi.png	ok
66287	09/15/2021 14:27:45	1	45	47594	943430	1	331	941287	946662	1	332	943987	2	265	inorganic	correct	946962	1	333	946687	950178	1	334	949387	4	438	950644	1	334	949387	953560	1	335	952087	2	585	inorganic	correct	954176	1	335	952087	957159	1	336	954787	4	636	957825	1	337	957487	maj_01545.png	maj_Krawatte.png	maj_Computermaus.png	ok
66287	09/15/2021 14:28:03	1	46	47594	962407	1	338	960187	964873	1	339	962887	2	1531	inorganic	correct	966439	1	340	965587	969255	1	341	968287	2	269	969555	1	341	968287	972970	1	342	970987	2	1918	inorganic	correct	974919	1	343	973687	976919	1	344	976387	2	1035	977985	1	344	976387	fax_14883.png	fax_Fahrrad.png	fax_Klebeband.png	ok
66287	09/15/2021 14:28:25	1	47	47594	981067	1	345	979087	983600	1	346	981787	3	613	organic	correct	984233	1	346	981787	988432	1	348	987187	4	490	988948	1	348	987187	992397	1	349	989887	3	802	organic	correct	993230	1	350	992587	997612	1	351	995287	4	635	998278	1	352	997987	foe_08236.png	foe_Adler.png	foe_Tannenzapfen.png	ok
66287	09/15/2021 14:28:43	1	48	47594	1002710	1	353	1000686	1004543	1	354	1003387	2	828	inorganic	correct	1005392	1	354	1003387	1008741	1	355	1006087	4	1426	1010207	1	356	1008786	1012740	1	357	1011487	3	984	inorganic	correct	1013756	1	357	1011487	1016389	1	358	1014187	4	390	1016805	1	358	1014187	faj_07783.png	faj_Parfuem.png	faj_Schuh.png	ok
66287	09/15/2021 14:29:04	1	49	47594	1020987	1	360	1019587	1023853	1	361	1022287	2	1643	inorganic	correct	1025519	1	362	1024986	1027418	1	362	1024986	3	1159	1028601	1	363	1027687	1032167	1	364	1030387	3	1322	inorganic	correct	1033516	1	365	1033086	1036632	1	366	1035787	4	256	1036915	1	366	1035787	map_49576.png	map_Globus.png	map_Pfeife.png	ok
66287	09/15/2021 14:29:24	1	50	47594	1041913	1	368	1041186	1044629	1	369	1043887	3	1286	inorganic	incorrect	1045945	1	369	1043887	1049078	1	370	1046586	2	320	1049428	1	371	1049286	1053326	1	372	1051987	2	2613	inorganic	incorrect	1055959	1	373	1054685	1057358	1	373	1054685	2	375	1057758	1	374	1057386	faw_14685.png	faw_Kuechenmaschine.png	faw_Hufeisen.png	ok
66287	09/15/2021 14:29:43	1	51	47594	1061423	1	375	1060086	1063773	1	376	1062786	3	333	inorganic	incorrect	1064139	1	376	1062786	1068254	1	378	1068187	3	797	1069088	1	378	1068187	1071637	1	379	1070885	3	1796	inorganic	correct	1073453	1	379	1070885	1075302	1	380	1073585	4	489	1075819	1	380	1073585	fai_07637.png	fai_Foehn.png	fai_Kommode.png	ok
66287	09/15/2021 14:30:05	1	52	47594	1080617	1	382	1078986	1083633	1	383	1081685	2	1203	organic	incorrect	1084866	1	384	1084386	1087248	1	385	1087085	2	340	1087615	1	385	1087085	1092246	1	386	1089785	2	1978	organic	correct	1094246	1	387	1092485	1097395	1	388	1095185	4	1274	1098694	1	389	1097885	mon_69587.png	mon_Kartoffel.png	mon_Fuchs.png	ok
66287	09/15/2021 14:30:26	1	53	47594	1102443	1	390	1100585	1105109	1	391	1103285	2	869	inorganic	correct	1106008	1	391	1103285	1110324	1	393	1108686	4	337	1110707	1	393	1108686	1114072	1	394	1111385	2	792	inorganic	correct	1114889	1	395	1114085	1118304	1	396	1116785	4	536	1118871	1	396	1116785	fag_06551.png	fag_Portemonnaie.png	fag_Geschenk.png	ok
66287	09/15/2021 14:30:47	1	54	47594	1123636	1	398	1122185	1126668	1	399	1124885	2	973	inorganic	correct	1127668	1	400	1127586	1131850	1	401	1130285	2	259	1132133	1	401	1130285	1136165	1	403	1135685	3	1819	inorganic	correct	1138014	1	403	1135685	1139947	1	404	1138385	2	1094	1141063	1	404	1138385	fat_14140.png	fat_Einkaufswagen.png	fat_Kleiderbuegel.png	ok
66287	09/15/2021 14:31:05	1	55	47594	1144229	1	406	1143785	1146345	1	406	1143785	2	2200	organic	incorrect	1148577	1	407	1146485	1150543	1	408	1149185	2	1320	1151893	1	408	1149185	1154958	1	410	1154585	3	1730	organic	incorrect	1156725	1	410	1154585	1159274	1	411	1157285	2	1376	1160690	1	412	1159985	fou_18966.png	fou_Feige.png	fou_Schmetterling.png	ok
66287	09/15/2021 14:31:26	1	56	47594	1162939	1	413	1162685	1165272	1	413	1162685	3	993	organic	correct	1166288	1	414	1165385	1170220	1	415	1168086	2	334	1170587	1	415	1168086	1174269	1	417	1173485	2	1514	organic	correct	1175818	1	417	1173485	1179500	1	419	1178884	3	1125	1180650	1	419	1178884	for_15880.png	for_Seehund.png	for_Mandel.png	ok
66287	09/15/2021 14:31:47	1	57	47594	1184065	1	420	1181585	1186798	1	421	1184284	2	1318	inorganic	correct	1188147	1	422	1186985	1190830	1	423	1189685	2	378	1191230	1	423	1189685	1194895	1	424	1192384	2	1584	inorganic	correct	1196511	1	425	1195084	1200060	1	426	1197785	4	566	1200660	1	427	1200484	fap_17119.png	fap_Kissen.png	fap_Knopf.png	ok
66287	09/15/2021 14:32:08	1	58	47594	1204592	1	428	1203185	1207757	1	429	1205885	3	1649	inorganic	incorrect	1209457	1	430	1208584	1211139	1	430	1208584	2	1031	1212206	1	431	1211285	1215371	1	432	1213985	2	1878	inorganic	correct	1217271	1	433	1216684	1220553	1	434	1219385	2	292	1220869	1	434	1219385	fab_06286.png	fab_Kinderwagen.png	fab_Staubsauger.png	ok
66287	09/15/2021 14:32:27	1	59	47594	1225768	1	436	1224784	1228167	1	437	1227485	2	1841	organic	incorrect	1230033	1	437	1227485	1231766	1	438	1230185	2	601	1232399	1	438	1230185	1236781	1	440	1235585	2	1452	organic	correct	1238264	1	440	1235585	1240396	1	441	1238284	4	1438	1241862	1	442	1240984	fop_07937.png	fop_Koala.png	fop_Mango.png	ok
66287	09/15/2021 14:32:48	1	60	47594	1245011	1	443	1243685	1248560	1	444	1246384	2	1951	organic	incorrect	1250543	1	445	1249084	1253125	1	446	1251785	3	1542	1254691	1	447	1254484	1256857	1	447	1254484	3	2775	organic	correct	1259656	1	448	1257184	1262072	1	449	1259885	2	250	1262355	1	449	1259885	fov_15193.png	fov_Zucchini.png	fov_Fisch.png	ok
66287	09/15/2021 14:33:10	1	61	47594	1265754	1	451	1265284	1269070	1	452	1267985	3	508	organic	correct	1269603	1	452	1267985	1274285	1	454	1273384	4	864	1275184	1	454	1273384	1279516	1	456	1278784	3	750	organic	correct	1280299	1	456	1278784	1284131	1	457	1281484	4	1006	1285164	1	458	1284184	moe_23630.png	moe_Pommes.png	moe_Waschbaer.png	ok
66287	09/15/2021 14:33:30	1	62	47594	1287880	1	459	1286884	1289763	1	460	1289584	2	1371	organic	incorrect	1291162	1	460	1289584	1294661	1	461	1292284	2	228	1294911	1	461	1292284	1298227	1	463	1297684	3	2080	organic	correct	1300326	1	463	1297684	1302975	1	464	1300384	4	969	1303975	1	465	1303084	fok_09860.png	fok_Kaenguruh.png	fok_Palme.png	ok
66287	09/15/2021 14:33:49	1	63	47594	1307557	1	466	1305784	1309523	1	467	1308484	3	2242	organic	correct	1311789	1	468	1311184	1313155	1	468	1311184	2	1151	1314338	1	469	1313884	1318187	1	470	1316584	3	1759	organic	correct	1319969	1	471	1319284	1322418	1	472	1321983	4	527	1322968	1	472	1321983	mou_06524.png	mou_Croissant.png	mou_Kraehe.png	ok
66287	09/15/2021 14:34:09	1	64	47594	1327067	1	473	1324684	1329816	1	474	1327384	2	1446	organic	incorrect	1331282	1	475	1330083	1334581	1	476	1332784	2	715	1335331	1	476	1332784	1338980	1	478	1338183	2	2149	organic	correct	1341162	1	479	1340884	1342845	1	479	1340884	3	1346	1344228	1	480	1343584	mog_03277.png	mog_Pilz.png	mog_Fledermaus.png	ok
66287	09/15/2021 14:34:28	1	65	47594	1346794	1	481	1346283	1349193	1	482	1348984	2	1780	inorganic	correct	1351009	1	482	1348984	1352608	1	483	1351684	2	1413	1354041	1	483	1351684	1356174	1	484	1354383	3	2577	inorganic	correct	1358773	1	485	1357084	1360822	1	486	1359784	3	776	1361622	1	486	1359784	mal_20552.png	mal_Kugelschreiber.png	mal_Drucker.png	ok
66287	09/15/2021 14:34:47	1	66	47594	1365604	1	488	1365184	1367820	1	488	1365184	2	1354	inorganic	correct	1369203	1	489	1367883	1372168	1	490	1370583	2	717	1372918	1	490	1370583	1375684	1	491	1373284	2	1938	inorganic	correct	1377650	1	492	1375983	1379699	1	493	1378683	4	1490	1381215	1	493	1378683	mau_58144.png	mau_Leiter.png	mau_Wasserventil.png	ok
66287	09/15/2021 14:35:06	1	67	47594	1384397	1	495	1384083	1387396	1	496	1386783	3	1806	inorganic	incorrect	1389229	1	496	1386783	1390912	1	497	1389484	2	829	1391762	1	497	1389484	1394477	1	498	1392183	3	1560	inorganic	correct	1396060	1	499	1394883	1399976	1	500	1397584	3	1742	1401742	1	501	1400283	fal_07977.png	fal_Buegeleisen.png	fal_Korb.png	ok
66287	09/15/2021 14:35:25	1	68	47594	1403941	1	502	1402983	1405824	1	503	1405684	2	1398	inorganic	correct	1407273	1	503	1405684	1409889	1	504	1408383	2	641	1410555	1	504	1408383	1413871	1	506	1413783	3	1446	inorganic	incorrect	1415337	1	506	1413783	1417903	1	507	1416483	2	887	1418819	1	507	1416483	mak_03979.png	mak_Socken.png	mak_Rucksack.png	ok
66287	09/15/2021 14:35:45	1	69	47594	1422984	1	509	1421883	1425700	1	510	1424583	2	1705	organic	incorrect	1427433	1	511	1427283	1429665	1	511	1427283	2	1597	1431298	1	512	1429983	1433897	1	513	1432683	2	1454	organic	correct	1435380	1	513	1432683	1438179	1	515	1438083	4	321	1438529	1	515	1438083	foc_02664.png	foc_Eule.png	foc_Brombeere.png	ok
66287	09/15/2021 14:36:07	1	70	47594	1442794	1	516	1440783	1445260	1	517	1443483	3	1780	inorganic	incorrect	1447076	1	518	1446183	1449892	1	519	1448883	2	458	1450375	1	519	1448883	1454857	1	521	1454283	2	1697	inorganic	incorrect	1456590	1	521	1454283	1459106	1	522	1456983	4	977	1460105	1	523	1459683	far_06518.png	far_Giesskanne.png	far_Heissluftballon.png	ok
66287	09/15/2021 14:36:27	1	71	47594	1464204	1	524	1462383	1466020	1	525	1465083	2	1598	inorganic	correct	1467653	1	525	1465083	1470618	1	527	1470483	3	1691	1472334	1	527	1470483	1475850	1	528	1473183	3	2256	inorganic	correct	1478132	1	529	1475882	1480648	1	530	1478583	3	1525	1482198	1	531	1481283	mac_59752.png	mac_Dartpfeil.png	mac_Medaille.png	ok
66287	09/15/2021 14:36:46	1	72	47594	1484247	1	532	1483982	1486796	1	533	1486683	3	1676	inorganic	incorrect	1488496	1	533	1486683	1491511	1	534	1489383	2	1215	1492761	1	535	1492082	1496659	1	536	1494783	0	0	inorganic	miss	1496659	1	537	1497483	1500541	1	538	1500182	2	1235	1501808	1	538	1500182	maw_22459.png	maw_Schlauchboot.png	maw_Pingpongschlaeger.png	ok
66287	09/15/2021 14:37:08	1	73	47594	1504140	1	539	1502883	1507522	1	540	1505583	2	1012	organic	incorrect	1508555	1	541	1508282	1511721	1	542	1510983	2	755	1512504	1	542	1510983	1516386	1	543	1513682	2	1430	organic	incorrect	1517836	1	544	1516382	1520735	1	545	1519083	2	280	1521051	1	545	1519083	foa_00426.png	foa_Aubergine.png	foa_Marienkaefer.png	ok
66287	09/15/2021 14:37:28	1	74	47594	1525400	1	547	1524482	1527949	1	548	1527183	3	1197	inorganic	incorrect	1529182	1	548	1527183	1531997	1	549	1529882	2	265	1532297	1	549	1529882	1537146	1	551	1535283	2	2037	inorganic	correct	1539212	1	552	1537982	1542377	1	553	1540682	3	684	1543094	1	553	1540682	mao_19000.png	mao_Kegel.png	mao_Stempel.png	ok
66287	09/15/2021 14:37:48	1	75	47594	1545743	1	554	1543383	1549092	1	556	1548782	2	1334	organic	incorrect	1550458	1	556	1548782	1554240	1	558	1554182	2	365	1554656	1	558	1554182	1557889	1	559	1556882	3	2153	organic	incorrect	1560071	1	560	1559582	1561954	1	560	1559582	3	2074	1564053	1	561	1562282	foj_08937.png	foj_Rose.png	foj_Waffel.png	ok
66287	09/15/2021 14:38:07	1	76	47594	1565719	1	562	1564982	1568102	1	563	1567682	2	1918	organic	incorrect	1570051	1	563	1567682	1572101	1	564	1570382	3	1065	1573200	1	565	1573082	1576349	1	566	1575782	3	1203	organic	correct	1577582	1	566	1575782	1580464	1	567	1578482	4	324	1580814	1	567	1578482	moh_07125.png	moh_Muecke.png	moh_Birne.png	ok
66287	09/15/2021 14:38:28	1	77	47594	1584880	1	569	1583882	1588145	1	570	1586582	3	1928	organic	correct	1590094	1	571	1589282	1591727	1	571	1589282	2	923	1592677	1	572	1591982	1595559	1	573	1594682	3	2354	organic	correct	1597942	1	574	1597382	1600658	1	575	1600082	4	311	1601007	1	575	1600082	fot_06092.png	fot_Taube.png	fot_Salat.png	ok
66287	09/15/2021 14:38:46	1	78	47594	1605906	1	577	1605481	1609305	1	578	1608182	2	240	organic	incorrect	1609571	1	578	1608182	1612654	1	579	1610882	2	1177	1613853	1	580	1613581	1616052	1	580	1613581	2	2210	organic	correct	1618285	1	581	1616282	1620018	1	582	1618982	2	943	1620984	1	582	1618982	mot_69770.png	mot_Bison.png	mot_Hotdog.png	ok
66287	09/15/2021 14:39:07	1	79	47594	1623883	1	583	1621681	1626649	1	584	1624382	2	1837	inorganic	correct	1628515	1	585	1627082	1631830	1	586	1629781	3	218	1632080	1	586	1629781	1636745	1	588	1635182	3	2244	inorganic	incorrect	1639011	1	589	1637881	1640861	1	590	1640582	2	305	1641194	1	590	1640582	mai_23761.png	mai_Gewehr.png	mai_Auto.png	ok
66287	09/15/2021 14:39:27	1	80	47594	1644259	1	591	1643281	1646842	1	592	1645981	3	316	organic	correct	1647192	1	592	1645981	1651990	1	594	1651381	4	534	1652573	1	594	1651381	1656572	1	595	1654081	2	1183	organic	correct	1657788	1	596	1656782	1660387	1	597	1659481	4	804	1661220	1	597	1659481	moj_11860.png	moj_Blatt.png	moj_Walnuss.png	ok
66287	09/15/2021 14:39:46	1	81	47594	1664203	1	598	1662181	1666802	1	599	1664882	2	1771	inorganic	correct	1668601	1	600	1667581	1671100	1	601	1670281	2	1525	1672650	1	601	1670281	1674932	1	602	1672982	3	1521	inorganic	correct	1676482	1	603	1675681	1679164	1	604	1678381	4	1176	1680364	1	604	1678381	mat_23754.png	mat_Feuerzeug.png	mat_Helm.png	ok
66287	09/15/2021 14:40:06	1	82	47594	1683863	1	606	1683781	1686045	1	606	1683781	3	1658	organic	correct	1687728	1	607	1686481	1691027	1	608	1689181	2	813	1691860	1	608	1689181	1694859	1	610	1694581	2	2124	organic	incorrect	1697008	1	610	1694581	1698841	1	611	1697281	2	1352	1700241	1	612	1699981	mos_23223.png	mos_Traube.png	mos_Eintagsfliege.png	ok
66287	09/15/2021 14:40:25	1	83	47594	1704006	1	613	1702681	1706788	1	614	1705381	2	707	inorganic	correct	1707521	1	614	1705381	1710454	1	615	1708081	3	1745	1712220	1	616	1710781	1714669	1	617	1713481	2	1810	inorganic	incorrect	1716502	1	618	1716181	1718934	1	619	1718881	3	1384	1720350	1	619	1718881	mae_36426.png	mae_Taschenrechner.png	mae_Schach.png	ok
66287	09/15/2021 14:40:46	1	84	47594	1722933	1	620	1721581	1725549	1	621	1724281	3	1585	organic	correct	1727165	1	622	1726981	1730614	1	623	1729681	2	551	1731197	1	623	1729681	1734112	1	624	1732381	2	2785	organic	correct	1736928	1	625	1735081	1738428	1	626	1737781	2	417	1738877	1	626	1737781	foi_05187.png	foi_Apfelkuchen.png	foi_Pflanze.png	ok
66287	09/15/2021 14:41:06	1	85	47594	1743659	1	628	1743180	1745892	1	628	1743180	2	1805	organic	incorrect	1747724	1	629	1745881	1750607	1	630	1748581	3	1415	1752073	1	631	1751280	1754422	1	632	1753981	3	2393	organic	incorrect	1756838	1	633	1756681	1759737	1	634	1759380	2	239	1760004	1	634	1759380	foq_17341.png	foq_Pinguin.png	foq_Fenchel.png	ok
66287	09/15/2021 14:41:24	1	86	47594	1763369	1	635	1762081	1765635	1	636	1764781	3	744	organic	correct	1766401	1	636	1764781	1770800	1	638	1770181	4	271	1771100	1	638	1770181	1774199	1	639	1772881	3	932	organic	correct	1775165	1	639	1772881	1778497	1	641	1778281	4	421	1778947	1	641	1778281	mol_11363.png	mol_Pizza.png	mol_Schimpanse.png	ok
66287	09/15/2021 14:41:46	1	87	47594	1781930	1	642	1780981	1784779	1	643	1783680	2	1141	organic	incorrect	1785945	1	643	1783680	1788611	1	644	1786381	2	1601	1790243	1	645	1789080	1793209	1	646	1791780	2	2323	organic	incorrect	1795558	1	647	1794481	1798757	1	648	1797180	2	1023	1799823	1	648	1797180	mom_59641.png	mom_Loewe.png	mom_Ei.png	ok
66287	09/15/2021 14:42:08	1	88	47594	1803772	1	650	1802581	1805555	1	651	1805280	3	2307	inorganic	incorrect	1807887	1	651	1805280	1810870	1	653	1810681	2	276	1811170	1	653	1810681	1815885	1	654	1813380	3	2768	inorganic	correct	1818684	1	655	1816080	1821000	1	656	1818781	3	1423	1822449	1	657	1821480	fan_18894.png	fan_Klavier.png	fan_Lampe.png	ok
66287	09/15/2021 14:42:26	1	89	47594	1825248	1	658	1824180	1827831	1	659	1826880	2	1432	inorganic	correct	1829297	1	659	1826880	1832479	1	661	1832281	2	247	1832762	1	661	1832281	1836278	1	662	1834980	2	1559	inorganic	correct	1837861	1	663	1837680	1839977	1	663	1837680	3	1770	1841776	1	664	1840380	fac_02970.png	fac_Ohrring.png	fac_Haarbuerste.png	ok
66287	09/15/2021 14:42:47	1	90	47594	1843742	1	665	1843080	1846391	1	666	1845780	3	1383	inorganic	incorrect	1847824	1	666	1845780	1851773	1	668	1851180	3	1009	1852806	1	668	1851180	1856188	1	669	1853880	2	1554	inorganic	correct	1857771	1	670	1856581	1860470	1	671	1859280	2	1624	1862119	1	672	1861980	mas_41937.png	mas_Tisch.png	mas_Bueroklammer.png	ok
66287	09/15/2021 14:43:10	1	91	47594	1864785	1	673	1864681	1867900	1	674	1867380	2	1458	organic	incorrect	1869383	1	674	1867380	1873032	1	676	1872780	2	800	1873865	1	676	1872780	1878080	1	677	1875480	3	1869	organic	correct	1879980	1	678	1878180	1883329	1	679	1880880	4	413	1883778	1	680	1883580	mof_06901.png	mof_Spaghetti.png	mof_Hahn.png	ok
66287	09/15/2021 14:43:31	1	92	47594	1887644	1	681	1886280	1889926	1	682	1888980	2	1627	organic	incorrect	1891576	1	682	1888980	1895141	1	684	1894380	2	1833	1897024	1	684	1894380	1899706	1	685	1897080	2	1880	organic	correct	1901622	1	686	1899780	1904605	1	687	1902480	3	1341	1905971	1	688	1905180	mob_22833.png	mob_Kiwi.png	mob_Igel.png	ok
66287	09/15/2021 14:43:52	1	93	47594	1908403	1	689	1907880	1911802	1	690	1910580	2	414	inorganic	correct	1912252	1	690	1910580	1916701	1	692	1915980	2	1299	1918033	1	692	1915980	1921632	1	694	1921380	3	1542	inorganic	correct	1923198	1	694	1921380	1925897	1	695	1924080	4	687	1926614	1	695	1924080	maj_01546.png	maj_Computermaus.png	maj_Krawatte.png	ok
66287	09/15/2021 14:44:12	1	94	47594	1929863	1	697	1929480	1932429	1	698	1932180	3	1645	inorganic	incorrect	1934095	1	698	1932180	1935861	1	699	1934879	2	944	1936827	1	699	1934879	1940393	1	701	1940280	2	1790	inorganic	correct	1942209	1	701	1940280	1945524	1	702	1942979	3	505	1946074	1	703	1945680	fax_15310.png	fax_Klebeband.png	fax_Fahrrad.png	ok
66287	09/15/2021 14:44:34	1	95	47594	1949473	1	704	1948380	1952938	1	705	1951079	2	1567	organic	incorrect	1954538	1	706	1953780	1957720	1	707	1956480	2	805	1958553	1	707	1956480	1962052	1	709	1961880	2	2863	organic	correct	1964934	1	710	1964579	1967150	1	710	1964579	2	917	1968100	1	711	1967279	foe_08514.png	foe_Tannenzapfen.png	foe_Adler.png	ok
66287	09/15/2021 14:44:53	1	96	47594	1971682	1	712	1969980	1973448	1	713	1972679	2	690	inorganic	correct	1974164	1	713	1972679	1976964	1	714	1975379	4	282	1977280	1	714	1975379	1980662	1	715	1978080	3	879	inorganic	correct	1981562	1	716	1980779	1986210	1	718	1986180	4	281	1986527	1	718	1986180	faj_07849.png	faj_Schuh.png	faj_Parfuem.png	ok
