ID	DateTime	Run	Delayed_Retrieval_Trial	First_Pulse_Time	FaceRecog_OnsetTime	FaceRecog_OnsetTimeUncertainty	FaceRecog_fMRI_Pulse	FaceRecog_fMRI_PulseTime	Assoc_Retrieval_OnsetTime	Assoc_Retrieval_OnsetTimeUncertainty	Assoc_Retrieval_fMRI_Pulse	Assoc_Retrieval_fMRI_PulseTime	Assoc_Retrieval_Pressed_Button	Assoc_Retrieval_RT	Assoc_Retrieval_Response_Category	Assoc_Retrieval_Accuracy	Assoc_Retrieval_Feedback_OnsetTime	Assoc_Retrieval_Feedback_OnsetTimeUncertainty	Assoc_Retrieval_Feedback_fMRI_Pulse	Assoc_Retrieval_Feedback_fMRI_PulseTime	Retrieval_consc_Rating_OnsetTime	Retrieval_consc_Rating_OnsetTimeUncertainty	Retrieval_consc_Rating_fMRI_Pulse	Retrieval_consc_Rating_fMRI_PulseTime	Retrieval_consc_Rating_Pressed_Button	Retrieval_consc_Rating_RT	Retrieval_consc_Rating_Feedback_OnsetTime	Retrieval_consc_Rating_Feedback_OnsetTimeUncertainty	Retrieval_consc_Rating_Feedback_fMRI_Pulse	Retrieval_consc_Rating_Feedback_fMRI_PulseTime	ForcedChoice_OnsetTime	ForcedChoice_OnsetTimeUncertainty	ForcedChoice_fMRI_Pulse	ForcedChoice_fMRI_PulseTime	ForcedChoice_Pressed_Button	ForcedChoice_RT	ForcedChoice_Response_Category	ForcedChoice_Accuracy	ForcedChoice_Feedback_OnsetTime	ForcedChoice_Feedback_OnsetTimeUncertainty	ForcedChoice_Feedback_fMRI_Pulse	ForcedChoice_Feedback_fMRI_PulseTime	Recognition_consc_Rating_OnsetTime	Recognition_consc_Rating_OnsetTimeUncertainty	Recognition_consc_Rating_fMRI_Pulse	Recognition_consc_Rating_fMRI_PulseTime	Recognition_consc_Rating_Pressed_Button	Recognition_consc_Rating_RT	Recognition_consc_Rating_Feedback_OnsetTime	Recognition_consc_Rating_Feedback_OnsetTimeUncertainty	Recognition_consc_Rating_Feedback_fMRI_Pulse	Recognition_consc_Rating_Feedback_fMRI_PulseTime	Presented_Person	Presented_Target	Presented_Lure	TrialStatus
66325	09/01/2021 16:12:01	1	1	42856	55881	1	5	53656	58663	1	6	56357	3	959	organic	correct	59646	1	7	59056	63961	1	8	61756	3	1045	65027	1	9	64457	69026	1	10	67156	3	2085	organic	correct	71142	1	11	69856	73075	1	12	72557	4	1627	74741	1	12	72557	moe_02012.png	moe_Waschbaer.png	moe_Pommes.png	ok
66325	09/01/2021 16:12:21	1	2	42856	76757	1	13	75256	79839	1	14	77956	3	428	organic	correct	80289	1	14	77956	83405	1	16	83356	3	610	84038	1	16	83356	88203	1	17	86056	3	2330	organic	correct	90569	1	18	88756	92801	1	19	91456	2	376	93201	1	19	91456	mot_69374.png	mot_Bison.png	mot_Hotdog.png	ok
66325	09/01/2021 16:12:42	1	3	42856	96683	1	20	94156	99699	1	22	99556	3	860	organic	correct	100582	1	22	99556	104881	1	23	102256	2	469	105380	1	24	104956	109512	1	25	107656	3	1912	organic	correct	111445	1	26	110356	114028	1	27	113056	2	1175	115227	1	27	113056	mon_65798.png	mon_Fuchs.png	mon_Kartoffel.png	ok
66325	09/01/2021 16:13:01	1	4	42856	117476	1	28	115756	119942	1	29	118456	2	618	organic	incorrect	120592	1	29	118456	123358	1	30	121156	2	571	123974	1	31	123856	126923	1	32	126555	3	1964	organic	correct	128922	1	32	126555	131622	1	33	129256	4	808	132455	1	34	131956	foa_00207.png	foa_Marienkaefer.png	foa_Aubergine.png	ok
66325	09/01/2021 16:13:20	1	5	42856	136537	1	35	134655	138203	1	36	137356	3	1532	organic	correct	139769	1	36	137356	142451	1	37	140056	4	655	143134	1	38	142755	147633	1	39	145456	2	871	organic	correct	148533	1	40	148156	151298	1	41	150855	4	1071	152398	1	41	150855	mou_01862.png	mou_Croissant.png	mou_Kraehe.png	ok
66325	09/01/2021 16:13:41	1	6	42856	155897	1	42	153556	158129	1	43	156256	2	1123	organic	incorrect	159279	1	44	158955	161695	1	45	161656	2	438	162161	1	45	161656	166260	1	46	164355	2	1918	organic	correct	168209	1	47	167055	171858	1	48	169756	2	868	172774	1	49	172455	foi_03389.png	foi_Apfelkuchen.png	foi_Pflanze.png	ok
66325	09/01/2021 16:14:03	1	7	42856	176823	1	50	175155	179739	1	51	177856	3	916	inorganic	incorrect	180688	1	52	180555	183887	1	53	183255	2	1037	184954	1	53	183255	189152	1	55	188655	2	1564	inorganic	correct	190752	1	55	188655	193484	1	56	191355	3	1136	194650	1	57	194055	faw_14215.png	faw_Kuechenmaschine.png	faw_Hufeisen.png	ok
66325	09/01/2021 16:14:24	1	8	42856	198632	1	58	196755	201348	1	59	199455	2	387	inorganic	correct	201765	1	59	199455	206246	1	61	204855	4	320	206596	1	61	204855	210945	1	63	210255	3	1130	inorganic	correct	212111	1	63	210255	215443	1	64	212955	4	1219	216693	1	65	215655	fab_06018.png	fab_Kinderwagen.png	fab_Staubsauger.png	ok
66325	09/01/2021 16:14:44	1	9	42856	220108	1	66	218354	222291	1	67	221054	3	748	inorganic	incorrect	223091	1	67	221054	226090	1	68	223755	2	367	226489	1	69	226454	230338	1	70	229154	3	2461	inorganic	correct	232821	1	71	231855	235087	1	72	234555	3	412	235536	1	72	234555	far_00736.png	far_Heissluftballon.png	far_Giesskanne.png	ok
66325	09/01/2021 16:15:04	1	10	42856	239535	1	73	237255	241268	1	74	239954	2	787	inorganic	correct	242084	1	74	239954	245616	1	76	245354	3	1164	246816	1	76	245354	250265	1	77	248054	2	524	inorganic	correct	250815	1	78	250754	255696	1	79	253454	4	471	256196	1	80	256154	map_41499.png	map_Pfeife.png	map_Globus.png	ok
66325	09/01/2021 16:15:23	1	11	42856	259395	1	81	258854	261228	1	81	258854	2	436	inorganic	correct	261694	1	82	261554	265809	1	83	264254	4	1426	267259	1	84	266954	269975	1	85	269655	2	453	inorganic	correct	270475	1	85	269655	273807	1	86	272353	4	348	274190	1	86	272353	mak_00987.png	mak_Socken.png	mak_Rucksack.png	ok
66325	09/01/2021 16:15:42	1	12	42856	278688	1	88	277754	280604	1	89	280454	2	592	inorganic	correct	281221	1	89	280454	284686	1	90	283155	4	801	285519	1	90	283155	289068	1	92	288553	2	518	inorganic	correct	289618	1	92	288553	293583	1	93	291254	4	374	293983	1	94	293954	mat_23275.png	mat_Helm.png	mat_Feuerzeug.png	ok
66325	09/01/2021 16:16:03	1	13	42856	297832	1	95	296653	300331	1	96	299355	2	439	organic	incorrect	300798	1	96	299355	305479	1	98	304753	2	486	305996	1	98	304753	309795	1	99	307454	2	1721	organic	correct	311544	1	100	310154	314310	1	101	312854	3	454	314793	1	101	312854	mof_02408.png	mof_Hahn.png	mof_Spaghetti.png	ok
66325	09/01/2021 16:16:24	1	14	42856	318225	1	102	315554	321007	1	104	320953	3	329	organic	correct	321391	1	104	320953	325756	1	105	323654	3	870	326656	1	106	326353	330104	1	107	329054	2	442	organic	correct	330571	1	107	329054	334703	1	109	334453	4	322	335053	1	109	334453	moj_11821.png	moj_Walnuss.png	moj_Blatt.png	ok
66325	09/01/2021 16:16:45	1	15	42856	339501	1	110	337154	341617	1	111	339854	2	692	organic	incorrect	342334	1	111	339854	346715	1	113	345253	2	370	347115	1	113	345253	351281	1	115	350653	3	1952	organic	correct	353263	1	115	350653	356562	1	117	356053	3	369	356962	1	117	356053	mog_03090.png	mog_Pilz.png	mog_Fledermaus.png	ok
66325	09/01/2021 16:17:07	1	16	42856	360877	1	118	358753	363143	1	119	361453	3	685	organic	correct	363860	1	119	361453	368408	1	121	366853	2	697	369158	1	121	366853	372923	1	123	372253	3	1977	organic	correct	374923	1	123	372253	378421	1	125	377653	3	321	378771	1	125	377653	fot_00797.png	fot_Taube.png	fot_Salat.png	ok
66325	09/01/2021 16:17:27	1	17	42856	382420	1	126	380353	385852	1	128	385753	2	397	inorganic	correct	386285	1	128	385753	390134	1	129	388453	2	737	390900	1	129	388453	395066	1	131	393853	3	2097	inorganic	incorrect	397198	1	132	396553	399414	1	133	399253	3	501	399947	1	133	399253	faj_07783.png	faj_Schuh.png	faj_Parfuem.png	ok
66325	09/01/2021 16:17:48	1	18	42856	402996	1	134	401953	405929	1	135	404653	2	355	organic	incorrect	406312	1	135	404653	410011	1	136	407353	2	338	410377	1	137	410053	415109	1	138	412753	3	1799	organic	incorrect	416975	1	139	415453	418991	1	140	418153	2	1030	420074	1	140	418153	fou_17118.png	fou_Schmetterling.png	fou_Feige.png	ok
66325	09/01/2021 16:18:08	1	19	42856	423489	1	141	420853	425905	1	142	423553	2	518	organic	incorrect	426455	1	143	426253	430920	1	144	428953	2	667	431620	1	144	428953	435952	1	146	434353	2	2794	organic	correct	438768	1	147	437053	440184	1	148	439752	2	446	440667	1	148	439752	foq_16799.png	foq_Fenchel.png	foq_Pinguin.png	ok
66325	09/01/2021 16:18:27	1	20	42856	443683	1	149	442453	445665	1	150	445153	2	727	inorganic	correct	446415	1	150	445153	450080	1	151	447852	2	324	450430	1	151	447852	453529	1	153	453253	3	2648	inorganic	correct	456212	1	154	455952	458444	1	154	455952	3	970	459444	1	155	458653	mae_01010.png	mae_Taschenrechner.png	mae_Schach.png	ok
66325	09/01/2021 16:18:45	1	21	42856	462859	1	156	461353	465492	1	157	464052	3	413	organic	correct	465942	1	157	464052	469191	1	158	466753	4	342	469574	1	159	469453	473789	1	160	472152	3	1227	organic	correct	475039	1	161	474853	477405	1	161	474853	4	1343	478771	1	162	477552	mom_59361.png	mom_Loewe.png	mom_Ei.png	ok
66325	09/01/2021 16:19:07	1	22	42856	481020	1	163	480252	483836	1	164	482953	2	1115	inorganic	correct	484985	1	164	482953	489167	1	166	488352	2	552	489750	1	166	488352	493699	1	167	491053	2	1273	inorganic	incorrect	494999	1	168	493752	498947	1	169	496452	3	372	499347	1	170	499153	fax_14883.png	fax_Fahrrad.png	fax_Klebeband.png	ok
66325	09/01/2021 16:19:29	1	23	42856	503179	1	171	501852	506211	1	172	504552	2	373	organic	incorrect	506611	1	172	504552	510093	1	174	509952	2	506	510627	1	174	509952	515375	1	175	512652	2	2192	organic	incorrect	517608	1	176	515353	519923	1	177	518052	2	401	520357	1	177	518052	for_15187.png	for_Seehund.png	for_Mandel.png	ok
66325	09/01/2021 16:19:50	1	24	42856	524722	1	179	523452	527571	1	180	526152	2	596	inorganic	correct	528204	1	180	526152	531386	1	181	528852	3	1022	532436	1	182	531552	536285	1	183	534252	2	990	inorganic	correct	537301	1	184	536952	540650	1	185	539652	4	473	541150	1	185	539652	mac_59169.png	mac_Dartpfeil.png	mac_Medaille.png	ok
66325	09/01/2021 16:20:09	1	25	42856	545232	1	187	545052	547914	1	188	547752	2	336	organic	incorrect	548281	1	188	547752	552879	1	189	550452	2	408	553312	1	190	553152	556211	1	191	555852	2	2155	organic	correct	558394	1	191	555852	560976	1	192	558552	2	352	561359	1	193	561252	fov_15046.png	fov_Fisch.png	fov_Zucchini.png	ok
66325	09/01/2021 16:20:28	1	26	42856	564908	1	194	563952	566541	1	194	563952	3	964	organic	correct	567557	1	195	566652	571339	1	196	569351	2	887	572256	1	197	572052	574755	1	197	572052	2	1835	organic	correct	576621	1	198	574752	579920	1	199	577451	3	300	580253	1	200	580152	foe_08236.png	foe_Tannenzapfen.png	foe_Adler.png	ok
66325	09/01/2021 16:20:49	1	27	42856	583935	1	201	582852	586551	1	202	585551	2	1238	inorganic	correct	587817	1	202	585551	591816	1	204	590952	2	756	592599	1	204	590952	596364	1	205	593651	3	2059	inorganic	incorrect	598447	1	206	596352	600280	1	207	599052	2	406	600713	1	207	599052	fat_12032.png	fat_Kleiderbuegel.png	fat_Einkaufswagen.png	ok
66325	09/01/2021 16:21:08	1	28	42856	604262	1	208	601751	605878	1	209	604452	2	496	inorganic	correct	606411	1	209	604452	609410	1	210	607152	2	393	609826	1	210	607152	614741	1	212	612552	2	1542	inorganic	correct	616324	1	213	615251	618840	1	214	617951	2	547	619423	1	214	617951	mao_11634.png	mao_Kegel.png	mao_Stempel.png	ok
66325	09/01/2021 16:21:27	1	29	42856	623405	1	216	623351	626304	1	217	626051	3	481	organic	correct	626821	1	217	626051	630203	1	218	628752	2	958	631186	1	218	628752	633635	1	219	631451	3	2333	organic	incorrect	636001	1	220	634151	637950	1	221	636852	3	340	638317	1	221	636852	fok_09378.png	fok_Kaenguruh.png	fok_Palme.png	ok
66325	09/01/2021 16:21:48	1	30	42856	642615	1	223	642251	646164	1	224	644952	2	531	inorganic	correct	646731	1	224	644952	650179	1	225	647651	2	518	650729	1	226	650351	655461	1	227	653052	3	1955	inorganic	incorrect	657444	1	228	655751	659609	1	229	658451	3	395	660043	1	229	658451	mal_04470.png	mal_Drucker.png	mal_Kugelschreiber.png	ok
66325	09/01/2021 16:22:08	1	31	42856	663508	1	230	661151	666341	1	231	663851	3	450	organic	correct	666840	1	232	666551	670056	1	233	669251	2	416	670506	1	233	669251	675171	1	235	674651	2	1136	organic	correct	676337	1	235	674651	680053	1	236	677351	4	332	680419	1	237	680051	fop_00621.png	fop_Mango.png	fop_Koala.png	ok
66325	09/01/2021 16:22:29	1	32	42856	683768	1	238	682751	687300	1	239	685451	3	485	inorganic	incorrect	687817	1	239	685451	692215	1	241	690851	2	490	692732	1	241	690851	696414	1	243	696251	2	1468	inorganic	correct	697913	1	243	696251	701079	1	244	698951	3	355	701462	1	244	698951	fap_16329.png	fap_Kissen.png	fap_Knopf.png	ok
66325	09/01/2021 16:22:50	1	33	42856	704411	1	246	704351	707677	1	247	707050	3	402	organic	correct	708110	1	247	707050	711792	1	248	709751	3	376	712192	1	248	709751	715591	1	250	715151	2	1337	organic	correct	716973	1	250	715151	720356	1	251	717851	4	349	720739	1	252	720551	foc_02157.png	foc_Brombeere.png	foc_Eule.png	ok
66325	09/01/2021 16:23:10	1	34	42856	725254	1	253	723250	727420	1	254	725951	2	950	organic	incorrect	728403	1	254	725951	732252	1	256	731350	2	583	732868	1	256	731350	737450	1	258	736751	0	0	organic	miss	737450	1	259	739450	742531	1	260	742151	2	1057	743614	1	260	742151	mol_07679.png	mol_Schimpanse.png	mol_Pizza.png	ok
66325	09/01/2021 16:23:29	1	35	42856	745914	1	261	744850	748263	1	262	747550	2	350	inorganic	correct	748646	1	262	747550	752161	1	263	750251	4	321	752511	1	263	750251	755560	1	264	752950	3	1240	inorganic	correct	756827	1	265	755651	759626	1	266	758351	4	1013	760675	1	266	758351	maj_01545.png	maj_Computermaus.png	maj_Krawatte.png	ok
66325	09/01/2021 16:23:47	1	36	42856	764824	1	268	763750	766956	1	269	766451	2	330	inorganic	correct	767323	1	269	766451	770389	1	270	769150	2	400	770822	1	270	769150	775637	1	272	774551	3	2239	inorganic	correct	777903	1	273	777250	779236	1	273	777250	3	1005	780269	1	274	779950	fan_17286.png	fan_Klavier.png	fan_Lampe.png	ok
66325	09/01/2021 16:24:07	1	37	42856	783018	1	275	782651	784900	1	275	782651	3	499	inorganic	incorrect	785434	1	276	785350	789449	1	277	788051	2	311	789782	1	277	788051	794431	1	279	793450	2	1511	inorganic	correct	795963	1	279	793450	798163	1	280	796151	2	1174	799362	1	281	798850	fai_07494.png	fai_Foehn.png	fai_Kommode.png	ok
66325	09/01/2021 16:24:28	1	38	42856	803094	1	282	801550	805294	1	283	804251	2	581	organic	incorrect	805910	1	283	804251	810025	1	285	809650	2	675	810725	1	285	809650	813724	1	286	812351	3	2036	organic	incorrect	815807	1	287	815050	819189	1	288	817750	3	569	819789	1	288	817750	mos_20953.png	mos_Eintagsfliege.png	mos_Traube.png	ok
66325	09/01/2021 16:24:48	1	39	42856	823604	1	290	823150	825303	1	290	823150	3	1507	organic	correct	826836	1	291	825850	828669	1	292	828550	2	358	829052	1	292	828550	833001	1	293	831250	3	1672	organic	correct	834700	1	294	833950	838282	1	295	836650	4	336	838649	1	295	836650	moh_06446.png	moh_Birne.png	moh_Muecke.png	ok
66325	09/01/2021 16:25:08	1	40	42856	843314	1	297	842050	846330	1	298	844750	3	371	inorganic	incorrect	846729	1	298	844750	850995	1	300	850150	2	337	851361	1	300	850150	854927	1	301	852850	3	1995	inorganic	incorrect	856943	1	302	855550	860258	1	303	858250	2	676	860975	1	303	858250	maw_04767.png	maw_Schlauchboot.png	maw_Pingpongschlaeger.png	ok
66325	09/01/2021 16:25:28	1	41	42856	864190	1	305	863650	866090	1	305	863650	2	511	organic	incorrect	866623	1	306	866350	869888	1	307	869050	2	634	870555	1	307	869050	874403	1	308	871750	2	1587	organic	incorrect	876020	1	309	874449	878902	1	310	877150	2	487	879418	1	310	877150	foj_08220.png	foj_Rose.png	foj_Waffel.png	ok
66325	09/01/2021 16:25:48	1	42	42856	883984	1	312	882549	885833	1	313	885250	2	656	inorganic	correct	886516	1	313	885250	891131	1	315	890649	2	333	891498	1	315	890649	895630	1	316	893350	3	2469	inorganic	correct	898129	1	317	896050	899228	1	318	898749	2	534	899795	1	318	898749	mas_41366.png	mas_Bueroklammer.png	mas_Tisch.png	ok
66325	09/01/2021 16:26:06	1	43	42856	903810	1	319	901450	906126	1	320	904150	3	1054	inorganic	incorrect	907209	1	321	906849	909575	1	322	909550	2	764	910408	1	322	909550	914407	1	323	912250	3	1623	inorganic	correct	916056	1	324	914949	918072	1	325	917650	3	331	918439	1	325	917650	fal_07906.png	fal_Korb.png	fal_Buegeleisen.png	ok
66325	09/01/2021 16:26:26	1	44	42856	921837	1	326	920350	924370	1	327	923049	3	272	inorganic	incorrect	924670	1	327	923049	929252	1	329	928449	2	539	929818	1	329	928449	932967	1	330	931149	3	1326	inorganic	correct	934316	1	331	933850	938382	1	332	936549	4	428	938832	1	332	936549	fac_02146.png	fac_Ohrring.png	fac_Haarbuerste.png	ok
66325	09/01/2021 16:26:49	1	45	42856	942114	1	334	941950	944230	1	334	941950	3	771	inorganic	incorrect	945030	1	335	944649	949478	1	336	947349	2	395	949895	1	336	947349	954810	1	338	952749	2	1389	inorganic	correct	956226	1	339	955449	960224	1	340	958150	3	323	960591	1	340	958150	mai_06530.png	mai_Auto.png	mai_Gewehr.png	ok
66325	09/01/2021 16:27:10	1	46	42856	965123	1	342	963549	967722	1	343	966249	2	293	inorganic	correct	968038	1	343	966249	971687	1	345	971649	2	738	972454	1	345	971649	975236	1	346	974349	3	1469	inorganic	correct	976735	1	346	974349	980501	1	348	979749	3	339	980867	1	348	979749	mau_49693.png	mau_Leiter.png	mau_Wasserventil.png	ok
66325	09/01/2021 16:27:31	1	47	42856	985766	1	350	985149	987415	1	350	985149	2	509	organic	incorrect	987948	1	351	987849	992364	1	352	990549	2	354	992747	1	352	990549	997245	1	354	995949	2	1836	organic	correct	999111	1	355	998649	1001677	1	356	1001349	3	408	1002110	1	356	1001349	mob_00760.png	mob_Kiwi.png	mob_Igel.png	ok
66325	09/01/2021 16:27:52	1	48	42856	1006225	1	357	1004049	1009774	1	359	1009449	2	694	inorganic	correct	1010507	1	359	1009449	1014456	1	360	1012148	2	769	1015256	1	361	1014849	1017838	1	362	1017549	3	1406	inorganic	incorrect	1019271	1	362	1017549	1023336	1	364	1022949	2	393	1023753	1	364	1022949	fag_06539.png	fag_Portemonnaie.png	fag_Geschenk.png	ok
66325	09/01/2021 16:28:14	1	49	42856	1028101	1	365	1025649	1029818	1	366	1028348	3	1891	organic	correct	1031734	1	367	1031049	1034982	1	368	1033749	2	291	1035299	1	368	1033749	1039914	1	370	1039149	2	1947	organic	correct	1041897	1	371	1041849	1045329	1	372	1044548	3	321	1045679	1	372	1044548	foa_00426.png	foa_Aubergine.png	foa_Marienkaefer.png	ok
66325	09/01/2021 16:28:34	1	50	42856	1049994	1	374	1049949	1051793	1	374	1049949	2	721	organic	incorrect	1052543	1	374	1049949	1055759	1	376	1055349	2	384	1056175	1	376	1055349	1060524	1	377	1058048	3	1763	organic	incorrect	1062323	1	378	1060748	1064372	1	379	1063449	2	481	1064889	1	379	1063449	mon_69587.png	mon_Kartoffel.png	mon_Fuchs.png	ok
66325	09/01/2021 16:28:55	1	51	42856	1069304	1	381	1068848	1072653	1	382	1071549	2	609	organic	incorrect	1073286	1	382	1071549	1076152	1	383	1074248	2	539	1076718	1	383	1074248	1081317	1	385	1079649	3	1674	organic	correct	1083016	1	386	1082348	1085282	1	387	1085048	3	504	1085815	1	387	1085048	moe_23630.png	moe_Pommes.png	moe_Waschbaer.png	ok
66325	09/01/2021 16:29:14	1	52	42856	1090380	1	388	1087749	1093513	1	390	1093148	2	409	organic	incorrect	1093946	1	390	1093148	1098344	1	391	1095848	2	340	1098711	1	392	1098548	1101743	1	393	1101248	2	1222	organic	correct	1102993	1	393	1101248	1106392	1	394	1103948	3	473	1106891	1	395	1106648	mot_69770.png	mot_Hotdog.png	mot_Bison.png	ok
66325	09/01/2021 16:29:34	1	53	42856	1110207	1	396	1109348	1112556	1	397	1112048	3	315	organic	correct	1112906	1	397	1112048	1116088	1	398	1114748	2	747	1116871	1	398	1114748	1120970	1	400	1120148	3	1573	organic	correct	1122569	1	400	1120148	1125035	1	401	1122848	3	820	1125885	1	402	1125548	mou_06524.png	mou_Kraehe.png	mou_Croissant.png	ok
66325	09/01/2021 16:29:52	1	54	42856	1129800	1	403	1128248	1131983	1	404	1130948	2	393	organic	incorrect	1132399	1	404	1130948	1135982	1	405	1133648	2	348	1136365	1	405	1133648	1139964	1	407	1139048	2	2262	organic	incorrect	1142246	1	408	1141748	1143596	1	408	1141748	2	916	1144545	1	409	1144448	foi_05187.png	foi_Pflanze.png	foi_Apfelkuchen.png	ok
66325	09/01/2021 16:30:12	1	55	42856	1147361	1	410	1147148	1149660	1	410	1147148	3	577	inorganic	incorrect	1150260	1	411	1149848	1154975	1	412	1152548	2	395	1155408	1	413	1155248	1160090	1	414	1157948	3	1832	inorganic	correct	1161956	1	415	1160648	1163939	1	416	1163348	3	394	1164355	1	416	1163348	faw_14685.png	faw_Hufeisen.png	faw_Kuechenmaschine.png	ok
66325	09/01/2021 16:30:31	1	56	42856	1167687	1	417	1166048	1169820	1	418	1168748	2	468	inorganic	correct	1170320	1	418	1168748	1173402	1	419	1171448	2	670	1174102	1	419	1171448	1176751	1	420	1174148	3	1650	inorganic	correct	1178434	1	421	1176848	1181733	1	422	1179548	4	399	1182166	1	422	1179548	fab_06286.png	fab_Staubsauger.png	fab_Kinderwagen.png	ok
66325	09/01/2021 16:30:50	1	57	42856	1186281	1	424	1184948	1188197	1	425	1187647	2	428	inorganic	correct	1188664	1	425	1187647	1193112	1	427	1193048	2	331	1193479	1	427	1193048	1198227	1	428	1195747	3	1998	inorganic	correct	1200260	1	429	1198448	1201943	1	430	1201148	3	504	1202476	1	430	1201148	far_06518.png	far_Giesskanne.png	far_Heissluftballon.png	ok
66325	09/01/2021 16:31:08	1	58	42856	1205975	1	431	1203847	1208140	1	432	1206548	3	985	inorganic	incorrect	1209173	1	432	1206548	1212406	1	434	1211947	3	642	1213072	1	434	1211947	1215805	1	435	1214648	2	1054	inorganic	correct	1216888	1	435	1214648	1220070	1	436	1217348	4	384	1220486	1	437	1220047	mak_03979.png	mak_Rucksack.png	mak_Socken.png	ok
66325	09/01/2021 16:31:29	1	59	42856	1223585	1	438	1222748	1225451	1	438	1222748	2	823	inorganic	correct	1226301	1	439	1225448	1229766	1	440	1228147	2	688	1230483	1	440	1228147	1234848	1	442	1233547	3	1654	inorganic	correct	1236531	1	443	1236247	1239247	1	444	1238948	3	311	1239580	1	444	1238948	mat_23754.png	mat_Feuerzeug.png	mat_Helm.png	ok
66325	09/01/2021 16:31:49	1	60	42856	1244328	1	445	1241647	1246378	1	446	1244347	3	388	inorganic	incorrect	1246794	1	446	1244347	1250026	1	448	1249747	2	298	1250360	1	448	1249747	1254941	1	449	1252447	2	870	inorganic	correct	1255858	1	450	1255148	1259523	1	451	1257847	4	312	1259890	1	451	1257847	map_49576.png	map_Globus.png	map_Pfeife.png	ok
66325	09/01/2021 16:32:08	1	61	42856	1264271	1	453	1263248	1266587	1	454	1265947	2	280	organic	incorrect	1266904	1	454	1265947	1270869	1	455	1268647	2	700	1271602	1	456	1271348	1275851	1	457	1274047	3	1476	organic	correct	1277350	1	458	1276747	1279883	1	459	1279447	3	1102	1281016	1	459	1279447	mof_06901.png	mof_Spaghetti.png	mof_Hahn.png	ok
66325	09/01/2021 16:32:29	1	62	42856	1283898	1	460	1282147	1286864	1	461	1284847	2	348	organic	incorrect	1287247	1	461	1284847	1290729	1	463	1290247	2	783	1291546	1	463	1290247	1296011	1	465	1295647	3	2125	organic	correct	1298160	1	465	1295647	1300043	1	466	1298347	2	312	1300393	1	466	1298347	fot_06092.png	fot_Salat.png	fot_Taube.png	ok
66325	09/01/2021 16:32:46	1	63	42856	1304924	1	468	1303747	1306857	1	469	1306447	2	757	organic	incorrect	1307657	1	469	1306447	1310206	1	470	1309147	2	533	1310772	1	470	1309147	1313571	1	471	1311847	3	1446	organic	correct	1315038	1	472	1314547	1318253	1	473	1317246	3	312	1318603	1	473	1317246	mog_03277.png	mog_Fledermaus.png	mog_Pilz.png	ok
66325	09/01/2021 16:33:05	1	64	42856	1321685	1	474	1319947	1323951	1	475	1322647	3	2045	organic	correct	1326034	1	476	1325346	1328283	1	477	1328047	2	829	1329149	1	477	1328047	1332898	1	478	1330747	3	1633	organic	correct	1334564	1	479	1333446	1336814	1	480	1336147	4	594	1337430	1	480	1336147	moj_11860.png	moj_Blatt.png	moj_Walnuss.png	ok
66325	09/01/2021 16:33:26	1	65	42856	1340779	1	481	1338847	1343944	1	482	1341546	2	831	inorganic	correct	1344811	1	483	1344247	1349209	1	484	1346947	3	745	1349992	1	485	1349646	1353741	1	486	1352347	2	2363	inorganic	correct	1356157	1	486	1352347	1357573	1	486	1352347	2	369	1357990	1	487	1357746	faj_07849.png	faj_Parfuem.png	faj_Schuh.png	ok
66325	09/01/2021 16:33:46	1	66	42856	1362122	1	488	1360447	1365004	1	489	1363147	3	501	organic	correct	1365537	1	489	1363147	1369319	1	491	1368547	2	368	1369719	1	491	1368547	1374151	1	493	1373946	3	1916	organic	correct	1376100	1	493	1373946	1378499	1	494	1376647	3	755	1379283	1	494	1376647	foq_17341.png	foq_Pinguin.png	foq_Fenchel.png	ok
66325	09/01/2021 16:34:07	1	67	42856	1381932	1	495	1379346	1385264	1	497	1384747	2	394	inorganic	correct	1385680	1	497	1384747	1390179	1	499	1390146	4	372	1390579	1	499	1390146	1393861	1	500	1392847	2	493	inorganic	correct	1394377	1	500	1392847	1397810	1	501	1395546	4	601	1398443	1	502	1398246	mae_36426.png	mae_Schach.png	mae_Taschenrechner.png	ok
66325	09/01/2021 16:34:26	1	68	42856	1402508	1	503	1400947	1404224	1	504	1403646	3	807	organic	correct	1405074	1	504	1403646	1408673	1	505	1406346	2	400	1409106	1	506	1409046	1413871	1	507	1411746	3	1620	organic	incorrect	1415520	1	508	1414446	1417853	1	509	1417146	3	779	1418669	1	509	1417146	fou_18966.png	fou_Feige.png	fou_Schmetterling.png	ok
66325	09/01/2021 16:34:46	1	69	42856	1421685	1	510	1419846	1424551	1	511	1422546	2	357	organic	incorrect	1424934	1	511	1422546	1428999	1	513	1427946	2	746	1429782	1	513	1427946	1432831	1	514	1430646	3	2540	organic	correct	1435397	1	515	1433346	1437779	1	516	1436046	2	342	1438146	1	516	1436046	mom_59641.png	mom_Ei.png	mom_Loewe.png	ok
66325	09/01/2021 16:35:05	1	70	42856	1441778	1	518	1441446	1443961	1	518	1441446	2	675	organic	incorrect	1444660	1	519	1444146	1447376	1	520	1446846	2	1212	1448626	1	520	1446846	1451192	1	521	1449546	2	1841	organic	incorrect	1453074	1	522	1452246	1456723	1	523	1454945	2	535	1457306	1	523	1454945	for_15880.png	for_Mandel.png	for_Seehund.png	ok
66325	09/01/2021 16:35:26	1	71	42856	1460972	1	525	1460346	1463687	1	526	1463045	2	307	inorganic	correct	1464021	1	526	1463045	1468136	1	527	1465746	4	403	1468569	1	528	1468446	1472768	1	529	1471145	2	527	inorganic	correct	1473317	1	529	1471145	1476433	1	530	1473846	4	393	1476849	1	531	1476546	mac_59752.png	mac_Medaille.png	mac_Dartpfeil.png	ok
66325	09/01/2021 16:35:46	1	72	42856	1481731	1	532	1479245	1483397	1	533	1481946	2	783	inorganic	correct	1484214	1	533	1481946	1488396	1	535	1487345	2	738	1489162	1	535	1487345	1491794	1	536	1490046	2	1937	inorganic	correct	1493760	1	537	1492746	1496976	1	538	1495445	2	377	1497376	1	538	1495445	fax_15310.png	fax_Klebeband.png	fax_Fahrrad.png	ok
66325	09/01/2021 16:36:08	1	73	42856	1501241	1	540	1500845	1503907	1	541	1503545	3	878	organic	correct	1504840	1	541	1503545	1509122	1	543	1508945	2	682	1509838	1	543	1508945	1513254	1	544	1511645	2	1256	organic	correct	1514537	1	545	1514346	1518669	1	546	1517045	3	323	1519019	1	546	1517045	fov_15193.png	fov_Zucchini.png	fov_Fisch.png	ok
66325	09/01/2021 16:36:28	1	74	42856	1523367	1	548	1522446	1526549	1	549	1525145	3	497	inorganic	incorrect	1527082	1	549	1525145	1530581	1	551	1530546	2	908	1531514	1	551	1530546	1533997	1	552	1533245	3	1219	inorganic	incorrect	1535246	1	552	1533245	1539228	1	554	1538646	2	566	1539828	1	554	1538646	fat_14140.png	fat_Einkaufswagen.png	fat_Kleiderbuegel.png	ok
66325	09/01/2021 16:36:50	1	75	42856	1544160	1	556	1544045	1547209	1	557	1546745	2	335	inorganic	correct	1547576	1	557	1546745	1551191	1	558	1549445	2	732	1551974	1	558	1549445	1555240	1	560	1554845	2	1215	inorganic	correct	1556489	1	560	1554845	1560754	1	562	1560246	3	372	1561154	1	562	1560246	mao_19000.png	mao_Stempel.png	mao_Kegel.png	ok
66325	09/01/2021 16:37:07	1	76	42856	1565370	1	563	1562945	1568035	1	564	1565645	2	732	organic	incorrect	1568802	1	565	1568346	1572201	1	566	1571045	3	485	1572717	1	566	1571045	1575849	1	567	1573745	3	2739	organic	incorrect	1578615	1	568	1576446	1579448	1	569	1579145	2	694	1580165	1	569	1579145	foe_08514.png	foe_Adler.png	foe_Tannenzapfen.png	ok
66325	09/01/2021 16:37:25	1	77	42856	1582997	1	570	1581845	1584746	1	571	1584546	2	442	inorganic	correct	1585213	1	571	1584546	1588112	1	572	1587245	2	782	1588928	1	572	1587245	1592377	1	573	1589945	3	1861	inorganic	correct	1594260	1	574	1592645	1597242	1	575	1595345	3	420	1597692	1	575	1595345	fap_17119.png	fap_Knopf.png	fap_Kissen.png	ok
66325	09/01/2021 16:37:46	1	78	42856	1600824	1	577	1600745	1602807	1	577	1600745	3	1267	organic	correct	1604123	1	578	1603445	1607805	1	579	1606145	2	470	1608305	1	579	1606145	1612687	1	581	1611545	3	1027	organic	correct	1613736	1	581	1611545	1617569	1	583	1616945	4	323	1617918	1	583	1616945	fop_07937.png	fop_Koala.png	fop_Mango.png	ok
66325	09/01/2021 16:38:05	1	79	42856	1622134	1	584	1619645	1625016	1	585	1622345	3	732	inorganic	incorrect	1625782	1	586	1625045	1628931	1	587	1627745	2	528	1629481	1	587	1627745	1632347	1	588	1630445	2	1199	inorganic	incorrect	1633580	1	589	1633145	1637478	1	590	1635845	2	1833	1639344	1	591	1638544	mal_20552.png	mal_Kugelschreiber.png	mal_Drucker.png	ok
66325	09/01/2021 16:38:26	1	80	42856	1641061	1	591	1638544	1643560	1	592	1641245	2	974	organic	incorrect	1644559	1	593	1643945	1647908	1	594	1646644	2	760	1648691	1	594	1646644	1652557	1	596	1652045	2	2331	organic	incorrect	1654923	1	597	1654744	1657505	1	598	1657445	2	391	1657922	1	598	1657445	fok_09860.png	fok_Palme.png	fok_Kaenguruh.png	ok
66325	09/01/2021 16:38:45	1	81	42856	1661287	1	599	1660145	1664086	1	600	1662844	3	337	organic	correct	1664453	1	600	1662844	1668101	1	601	1665545	3	325	1668451	1	602	1668245	1672850	1	603	1670944	2	1393	organic	incorrect	1674266	1	604	1673645	1677065	1	605	1676344	3	309	1677398	1	605	1676344	mol_11363.png	mol_Pizza.png	mol_Schimpanse.png	ok
66325	09/01/2021 16:39:05	1	82	42856	1680797	1	606	1679044	1682547	1	607	1681745	2	507	inorganic	correct	1683080	1	607	1681745	1686312	1	608	1684444	2	316	1686662	1	608	1684444	1691610	1	610	1689845	2	1288	inorganic	correct	1692926	1	611	1692544	1696275	1	612	1695244	3	312	1696625	1	612	1695244	fan_18894.png	fan_Lampe.png	fan_Klavier.png	ok
66325	09/01/2021 16:39:28	1	83	42856	1700490	1	613	1697945	1704023	1	615	1703344	2	370	inorganic	correct	1704422	1	615	1703344	1708838	1	617	1708744	3	1168	1710037	1	617	1708744	1713636	1	618	1711444	2	479	inorganic	correct	1714136	1	618	1711444	1718884	1	620	1716844	4	367	1719284	1	620	1716844	maj_01546.png	maj_Krawatte.png	maj_Computermaus.png	ok
66325	09/01/2021 16:39:47	1	84	42856	1724099	1	622	1722244	1727115	1	623	1724944	2	324	organic	incorrect	1727465	1	623	1724944	1731463	1	625	1730344	2	652	1732146	1	625	1730344	1735479	1	626	1733044	3	1087	organic	correct	1736595	1	627	1735744	1739444	1	628	1738444	3	363	1739844	1	628	1738444	foc_02664.png	foc_Eule.png	foc_Brombeere.png	ok
66325	09/01/2021 16:40:09	1	85	42856	1743009	1	629	1741144	1746225	1	630	1743844	2	601	inorganic	correct	1746858	1	631	1746544	1750923	1	632	1749244	2	446	1751423	1	632	1749244	1755722	1	634	1754644	2	1765	inorganic	correct	1757521	1	635	1757344	1761103	1	636	1760044	2	463	1761603	1	636	1760044	fai_07637.png	fai_Kommode.png	fai_Foehn.png	ok
66325	09/01/2021 16:40:29	1	86	42856	1764719	1	637	1762744	1768051	1	638	1765444	3	336	organic	correct	1768417	1	639	1768143	1771966	1	640	1770844	2	1322	1773316	1	640	1770844	1775948	1	641	1773544	2	1816	organic	incorrect	1777798	1	642	1776243	1780913	1	643	1778944	2	823	1781763	1	644	1781644	mos_23223.png	mos_Traube.png	mos_Eintagsfliege.png	ok
66325	09/01/2021 16:40:47	1	87	42856	1784729	1	645	1784343	1786445	1	645	1784343	3	509	organic	correct	1786978	1	645	1784343	1790493	1	647	1789744	2	306	1790827	1	647	1789744	1794409	1	648	1792443	2	1293	organic	correct	1795725	1	649	1795144	1798974	1	650	1797844	3	292	1799307	1	650	1797844	moh_07125.png	moh_Muecke.png	moh_Birne.png	ok
66325	09/01/2021 16:41:07	1	88	42856	1802889	1	651	1800543	1805622	1	652	1803244	2	573	inorganic	correct	1806221	1	653	1805943	1809154	1	654	1808643	3	1225	1810403	1	654	1808643	1812802	1	655	1811344	2	2510	inorganic	incorrect	1815335	1	656	1814043	1817767	1	657	1816743	2	339	1818134	1	657	1816743	maw_22459.png	maw_Pingpongschlaeger.png	maw_Schlauchboot.png	ok
66325	09/01/2021 16:41:31	1	89	42856	1823049	1	659	1822143	1826148	1	660	1824843	3	294	inorganic	incorrect	1826464	1	660	1824843	1831313	1	662	1830243	3	344	1831679	1	662	1830243	1836411	1	664	1835644	3	2933	inorganic	correct	1839377	1	665	1838343	1841626	1	666	1841043	2	347	1842009	1	666	1841043	mas_41937.png	mas_Tisch.png	mas_Bueroklammer.png	ok
66325	09/01/2021 16:41:52	1	90	42856	1846858	1	668	1846443	1849590	1	669	1849143	3	473	organic	correct	1850106	1	669	1849143	1854572	1	670	1851843	2	392	1854988	1	671	1854543	1859420	1	672	1857243	3	2511	organic	incorrect	1861952	1	673	1859943	1863469	1	674	1862643	2	330	1863835	1	674	1862643	foj_08937.png	foj_Waffel.png	foj_Rose.png	ok
66325	09/01/2021 16:42:11	1	91	42856	1868017	1	675	1865343	1871083	1	677	1870743	2	590	inorganic	correct	1871699	1	677	1870743	1875315	1	678	1873443	2	428	1875764	1	678	1873443	1878847	1	679	1876143	3	1356	inorganic	correct	1880230	1	680	1878843	1882795	1	681	1881543	4	812	1883645	1	681	1881543	fac_02970.png	fac_Haarbuerste.png	fac_Ohrring.png	ok
66325	09/01/2021 16:42:29	1	92	42856	1886944	1	682	1884243	1889227	1	683	1886943	2	331	inorganic	correct	1889593	1	683	1886943	1892709	1	685	1892343	2	369	1893109	1	685	1892343	1896741	1	686	1895043	3	1163	inorganic	correct	1897957	1	687	1897743	1900423	1	687	1897743	3	343	1900806	1	688	1900443	fal_07977.png	fal_Buegeleisen.png	fal_Korb.png	ok
66325	09/01/2021 16:42:50	1	93	42856	1905154	1	689	1903143	1908687	1	691	1908543	3	1398	inorganic	incorrect	1910119	1	691	1908543	1912419	1	692	1911243	2	373	1912819	1	692	1911243	1916451	1	693	1913943	3	1951	inorganic	incorrect	1918433	1	694	1916643	1921499	1	695	1919343	2	277	1921799	1	695	1919343	fag_06551.png	fag_Geschenk.png	fag_Portemonnaie.png	ok
66325	09/01/2021 16:43:11	1	94	42856	1926047	1	697	1924743	1929263	1	698	1927443	3	427	organic	correct	1929713	1	698	1927443	1934095	1	700	1932843	2	1109	1935228	1	700	1932843	1938843	1	702	1938243	3	2025	organic	correct	1940892	1	702	1938243	1942525	1	703	1940943	2	349	1942908	1	703	1940943	mob_22833.png	mob_Igel.png	mob_Kiwi.png	ok
66325	09/01/2021 16:43:30	1	95	42856	1947007	1	705	1946343	1949839	1	706	1949043	3	368	inorganic	incorrect	1950256	1	706	1949043	1954355	1	707	1951742	2	882	1955271	1	708	1954443	1958037	1	709	1957143	3	1773	inorganic	correct	1959836	1	709	1957143	1961619	1	710	1959842	2	594	1962235	1	710	1959842	mau_58144.png	mau_Wasserventil.png	mau_Leiter.png	ok
66325	09/01/2021 16:43:48	1	96	42856	1965701	1	712	1965243	1967950	1	712	1965243	2	419	inorganic	correct	1968400	1	713	1967942	1971399	1	714	1970643	4	375	1971799	1	714	1970643	1975597	1	715	1973343	3	1057	inorganic	correct	1976680	1	716	1976042	1979496	1	717	1978743	3	1031	1980562	1	717	1978743	mai_23761.png	mai_Gewehr.png	mai_Auto.png	ok
