ID	DateTime	Run	Delayed_Retrieval_Trial	First_Pulse_Time	FaceRecog_OnsetTime	FaceRecog_OnsetTimeUncertainty	FaceRecog_fMRI_Pulse	FaceRecog_fMRI_PulseTime	Assoc_Retrieval_OnsetTime	Assoc_Retrieval_OnsetTimeUncertainty	Assoc_Retrieval_fMRI_Pulse	Assoc_Retrieval_fMRI_PulseTime	Assoc_Retrieval_Pressed_Button	Assoc_Retrieval_RT	Assoc_Retrieval_Response_Category	Assoc_Retrieval_Accuracy	Assoc_Retrieval_Feedback_OnsetTime	Assoc_Retrieval_Feedback_OnsetTimeUncertainty	Assoc_Retrieval_Feedback_fMRI_Pulse	Assoc_Retrieval_Feedback_fMRI_PulseTime	Retrieval_consc_Rating_OnsetTime	Retrieval_consc_Rating_OnsetTimeUncertainty	Retrieval_consc_Rating_fMRI_Pulse	Retrieval_consc_Rating_fMRI_PulseTime	Retrieval_consc_Rating_Pressed_Button	Retrieval_consc_Rating_RT	Retrieval_consc_Rating_Feedback_OnsetTime	Retrieval_consc_Rating_Feedback_OnsetTimeUncertainty	Retrieval_consc_Rating_Feedback_fMRI_Pulse	Retrieval_consc_Rating_Feedback_fMRI_PulseTime	ForcedChoice_OnsetTime	ForcedChoice_OnsetTimeUncertainty	ForcedChoice_fMRI_Pulse	ForcedChoice_fMRI_PulseTime	ForcedChoice_Pressed_Button	ForcedChoice_RT	ForcedChoice_Response_Category	ForcedChoice_Accuracy	ForcedChoice_Feedback_OnsetTime	ForcedChoice_Feedback_OnsetTimeUncertainty	ForcedChoice_Feedback_fMRI_Pulse	ForcedChoice_Feedback_fMRI_PulseTime	Recognition_consc_Rating_OnsetTime	Recognition_consc_Rating_OnsetTimeUncertainty	Recognition_consc_Rating_fMRI_Pulse	Recognition_consc_Rating_fMRI_PulseTime	Recognition_consc_Rating_Pressed_Button	Recognition_consc_Rating_RT	Recognition_consc_Rating_Feedback_OnsetTime	Recognition_consc_Rating_Feedback_OnsetTimeUncertainty	Recognition_consc_Rating_Feedback_fMRI_Pulse	Recognition_consc_Rating_Feedback_fMRI_PulseTime	Presented_Person	Presented_Target	Presented_Lure	TrialStatus
66376	06/30/2021 14:22:19	1	1	30413	43218	1	5	41213	45151	1	6	43913	2	1578	organic	incorrect	46750	1	7	46613	48783	1	7	46613	0	0	48783	1	8	49313	53132	1	9	52013	3	2288	organic	correct	55447	1	10	54713	56914	1	10	54713	4	1390	58330	1	11	57413	mom_59361.png	mom_Loewe.png	mom_Ei.png	ok
66376	06/30/2021 14:22:41	1	2	30413	60946	1	12	60113	63878	1	13	62813	2	1563	organic	incorrect	65477	1	13	62813	67393	1	14	65513	2	1989	69409	1	15	68213	72159	1	16	70913	2	1966	organic	correct	74175	1	17	73613	77723	1	18	76313	4	997	78773	1	18	76313	moj_11821.png	moj_Blatt.png	moj_Walnuss.png	ok
66376	06/30/2021 14:23:01	1	3	30413	82972	1	20	81712	84721	1	21	84413	2	1830	organic	incorrect	86587	1	21	84413	89619	1	22	87113	2	1952	91602	1	23	89812	94701	1	24	92513	3	1808	organic	correct	96534	1	25	95213	99633	1	26	97913	3	1606	101265	1	27	100613	foj_08220.png	foj_Rose.png	foj_Waffel.png	ok
66376	06/30/2021 14:23:21	1	4	30413	103448	1	28	103313	105464	1	28	103313	3	951	organic	correct	106447	1	29	106012	110212	1	30	108713	2	1339	111579	1	31	111413	114811	1	32	114112	3	1837	organic	incorrect	116677	1	32	114112	119926	1	34	119513	4	903	120859	1	34	119513	foe_08236.png	foe_Tannenzapfen.png	foe_Adler.png	ok
66376	06/30/2021 14:23:40	1	5	30413	123425	1	35	122212	125324	1	36	124913	2	1099	inorganic	correct	126474	1	36	124913	130172	1	37	127612	3	1573	131772	1	38	130312	135271	1	39	133013	3	2663	inorganic	correct	137970	1	40	135712	139103	1	41	138412	3	1642	140769	1	41	138412	mak_00987.png	mak_Rucksack.png	mak_Socken.png	ok
66376	06/30/2021 14:23:59	1	6	30413	142668	1	42	141113	144867	1	43	143812	3	1815	organic	correct	146717	1	44	146512	149682	1	45	149213	3	1144	150849	1	45	149213	153198	1	46	151912	3	1928	organic	incorrect	155147	1	47	154612	156830	1	47	154612	3	1247	158113	1	48	157313	foa_00207.png	foa_Marienkaefer.png	foa_Aubergine.png	ok
66376	06/30/2021 14:24:20	1	7	30413	161212	1	49	160012	164494	1	50	162713	2	665	organic	incorrect	165194	1	50	162713	168409	1	52	168112	3	1201	169642	1	52	168112	173308	1	53	170813	2	1690	organic	correct	175041	1	54	173512	178706	1	55	176212	4	1338	180072	1	56	178913	moh_06446.png	moh_Muecke.png	moh_Birne.png	ok
66376	06/30/2021 14:24:42	1	8	30413	182888	1	57	181612	186170	1	58	184312	3	1164	organic	correct	187370	1	59	187013	190552	1	60	189712	3	1234	191818	1	60	189712	195200	1	62	195113	3	1649	organic	correct	196883	1	62	195113	198949	1	63	197812	4	693	199666	1	63	197812	mot_69374.png	mot_Bison.png	mot_Hotdog.png	ok
66376	06/30/2021 14:25:03	1	9	30413	204164	1	65	203213	207313	1	66	205912	2	1291	organic	incorrect	208629	1	66	205912	211895	1	68	211312	3	1574	213494	1	68	211312	216410	1	69	214012	2	1968	organic	correct	218409	1	70	216712	221841	1	71	219412	3	1451	223341	1	72	222112	mos_20953.png	mos_Traube.png	mos_Eintagsfliege.png	ok
66376	06/30/2021 14:25:23	1	10	30413	225274	1	73	224812	227290	1	73	224812	2	1540	organic	incorrect	228856	1	74	227512	231805	1	75	230212	2	1341	233171	1	76	232912	235887	1	77	235612	3	1757	organic	correct	237669	1	77	235612	241035	1	79	241012	3	1522	242584	1	79	241012	fop_00621.png	fop_Mango.png	fop_Koala.png	ok
66376	06/30/2021 14:25:44	1	11	30413	245300	1	80	243712	248199	1	81	246412	2	933	inorganic	correct	249166	1	82	249112	253381	1	83	251812	3	895	254314	1	83	251812	257096	1	84	254512	3	1642	inorganic	correct	258762	1	85	257212	261411	1	86	259912	3	1371	262811	1	87	262612	far_00736.png	far_Heissluftballon.png	far_Giesskanne.png	ok
66376	06/30/2021 14:26:03	1	12	30413	266660	1	88	265311	269792	1	89	268012	2	731	inorganic	correct	270575	1	89	268012	273341	1	90	270712	4	525	273907	1	91	273411	277923	1	92	276112	3	873	inorganic	correct	278822	1	92	276112	281721	1	94	281511	4	560	282304	1	94	281511	fac_02146.png	fac_Haarbuerste.png	fac_Ohrring.png	ok
66376	06/30/2021 14:26:25	1	13	30413	285220	1	95	284212	287703	1	96	286912	3	2000	inorganic	incorrect	289735	1	97	289611	292268	1	97	289611	2	970	293267	1	98	292312	296333	1	99	295012	3	2000	inorganic	correct	298366	1	100	297711	301765	1	101	300412	3	1156	302947	1	101	300412	mat_23275.png	mat_Helm.png	mat_Feuerzeug.png	ok
66376	06/30/2021 14:26:46	1	14	30413	307046	1	103	305811	309595	1	104	308512	2	1552	organic	incorrect	311178	1	104	308512	313794	1	105	311211	2	1253	315077	1	106	313911	318892	1	107	316612	2	1686	organic	correct	320625	1	108	319311	323607	1	109	322011	3	1130	324790	1	110	324712	mog_03090.png	mog_Pilz.png	mog_Fledermaus.png	ok
66376	06/30/2021 14:27:05	1	15	30413	328056	1	111	327411	330771	1	112	330111	2	967	inorganic	correct	331771	1	112	330111	334520	1	113	332812	2	1257	335803	1	114	335511	338735	1	115	338211	2	2546	inorganic	incorrect	341318	1	116	340912	342684	1	116	340912	2	898	343617	1	116	340912	mas_41366.png	mas_Tisch.png	mas_Bueroklammer.png	ok
66376	06/30/2021 14:27:24	1	16	30413	347433	1	118	346311	350515	1	119	349012	3	1526	organic	correct	352064	1	120	351711	355530	1	121	354411	2	1161	356713	1	121	354411	358945	1	122	357111	2	1749	organic	correct	360728	1	123	359811	362961	1	124	362511	4	853	363844	1	124	362511	foi_03389.png	foi_Apfelkuchen.png	foi_Pflanze.png	ok
66376	06/30/2021 14:27:44	1	17	30413	366726	1	125	365211	368909	1	126	367911	2	1154	inorganic	correct	370108	1	126	367911	373774	1	128	373311	3	656	374473	1	128	373311	377406	1	129	376011	3	1853	inorganic	correct	379288	1	130	378711	382071	1	131	381411	4	532	382637	1	131	381411	fal_07906.png	fal_Buegeleisen.png	fal_Korb.png	ok
66376	06/30/2021 14:28:04	1	18	30413	386269	1	132	384111	388702	1	133	386811	2	568	inorganic	correct	389302	1	133	386811	393334	1	135	392211	4	785	394150	1	135	392211	397082	1	136	394911	2	1343	inorganic	correct	398449	1	137	397611	401748	1	138	400311	4	1217	402997	1	138	400311	mal_04470.png	mal_Kugelschreiber.png	mal_Drucker.png	ok
66376	06/30/2021 14:28:23	1	19	30413	406629	1	140	405711	410078	1	141	408411	2	1015	inorganic	correct	411128	1	141	408411	413510	1	142	411110	3	899	414443	1	143	413811	417259	1	144	416511	2	1091	inorganic	correct	418409	1	144	416511	422341	1	145	421911	4	626	423007	1	145	421911	mac_59169.png	mac_Dartpfeil.png	mac_Medaille.png	ok
66376	06/30/2021 14:28:45	1	20	30413	425923	1	146	424611	428805	1	147	427310	3	1051	organic	correct	429888	1	147	427310	433437	1	149	432711	2	858	434320	1	149	432711	437669	1	150	435410	3	2259	organic	correct	439951	1	151	438111	442917	1	152	440810	2	794	443733	1	153	443510	mob_00760.png	mob_Kiwi.png	mob_Igel.png	ok
66376	06/30/2021 14:29:05	1	21	30413	447199	1	154	446211	449315	1	155	448910	2	575	inorganic	correct	449915	1	155	448910	453497	1	156	451610	2	1770	455296	1	157	454311	457929	1	158	457010	2	1172	inorganic	correct	459128	1	158	457010	462277	1	159	459710	3	1521	463827	1	160	462412	mau_49693.png	mau_Wasserventil.png	mau_Leiter.png	ok
66376	06/30/2021 14:29:25	1	22	30413	467109	1	161	465110	470341	1	162	467810	2	881	organic	incorrect	471274	1	163	470512	474356	1	164	473210	3	602	474990	1	164	473210	478738	1	166	478611	3	2796	organic	correct	481554	1	167	481310	482487	1	167	481310	2	598	483120	1	167	481310	mou_01862.png	mou_Croissant.png	mou_Kraehe.png	ok
66376	06/30/2021 14:29:43	1	23	30413	487585	1	169	486710	490318	1	170	489410	2	586	inorganic	correct	490934	1	170	489410	493850	1	171	492110	4	1067	494950	1	172	494810	497682	1	173	497511	2	786	inorganic	correct	498498	1	173	497511	501747	1	174	500210	4	571	502347	1	174	500210	faj_07783.png	faj_Parfuem.png	faj_Schuh.png	ok
66376	06/30/2021 14:30:03	1	24	30413	505113	1	175	502911	506796	1	176	505611	2	947	organic	incorrect	507779	1	176	505611	510878	1	177	508311	3	1415	512327	1	178	511011	516109	1	179	513711	2	2750	organic	correct	518908	1	180	516411	521124	1	181	519111	3	339	521507	1	181	519111	moe_02012.png	moe_Pommes.png	moe_Waschbaer.png	ok
66376	06/30/2021 14:30:23	1	25	30413	525289	1	183	524511	528055	1	184	527211	3	1341	organic	correct	529421	1	184	527211	532454	1	185	529911	2	557	533037	1	186	532610	536536	1	187	535311	2	2018	organic	correct	538585	1	188	538011	541001	1	189	540710	2	1030	542067	1	189	540710	fot_00797.png	fot_Taube.png	fot_Salat.png	ok
66376	06/30/2021 14:30:42	1	26	30413	545816	1	190	543411	547532	1	191	546111	3	1105	organic	correct	548665	1	191	546111	551497	1	192	548810	4	413	551947	1	193	551511	556662	1	194	554211	3	722	organic	correct	557412	1	195	556911	560627	1	196	559611	4	587	561244	1	196	559611	fok_09378.png	fok_Palme.png	fok_Kaenguruh.png	ok
66376	06/30/2021 14:31:03	1	27	30413	564793	1	197	562311	567975	1	199	567711	2	1165	organic	incorrect	569191	1	199	567711	571857	1	200	570411	2	757	572657	1	200	570411	576855	1	202	575811	2	1810	organic	correct	578688	1	203	578510	580721	1	203	578510	4	1083	581837	1	204	581210	mol_07679.png	mol_Pizza.png	mol_Schimpanse.png	ok
66376	06/30/2021 14:31:22	1	28	30413	585369	1	205	583911	588801	1	206	586610	2	915	inorganic	correct	589751	1	207	589310	592367	1	208	592011	3	325	592717	1	208	592011	595732	1	209	594710	2	2392	inorganic	correct	598148	1	210	597411	600247	1	211	600111	3	1384	601664	1	211	600111	fai_07494.png	fai_Foehn.png	fai_Kommode.png	ok
66376	06/30/2021 14:31:41	1	29	30413	604179	1	212	602810	605762	1	213	605510	3	1739	inorganic	incorrect	607528	1	213	605510	610411	1	214	608211	2	508	610944	1	215	610910	614343	1	216	613611	2	1617	inorganic	incorrect	616009	1	216	613611	619574	1	218	619010	4	455	620074	1	218	619010	maw_04767.png	maw_Schlauchboot.png	maw_Pingpongschlaeger.png	ok
66376	06/30/2021 14:32:00	1	30	30413	623606	1	219	621710	626739	1	220	624410	3	1149	inorganic	incorrect	627921	1	221	627110	630221	1	222	629811	3	773	631020	1	222	629811	634303	1	223	632510	2	1138	inorganic	incorrect	635469	1	224	635210	638401	1	225	637911	4	381	638818	1	225	637911	map_41499.png	map_Globus.png	map_Pfeife.png	ok
66376	06/30/2021 14:32:22	1	31	30413	642283	1	226	640610	645682	1	227	643310	2	623	inorganic	correct	646332	1	228	646011	649264	1	229	648710	4	555	649847	1	229	648710	654213	1	231	654111	3	725	inorganic	correct	654962	1	231	654111	659611	1	233	659510	4	931	660577	1	233	659510	fap_16329.png	fap_Knopf.png	fap_Kissen.png	ok
66376	06/30/2021 14:32:42	1	32	30413	664876	1	234	662211	667625	1	235	664910	3	1091	inorganic	incorrect	668758	1	236	667610	672956	1	237	670310	2	764	673756	1	238	673010	676455	1	239	675710	2	1818	inorganic	incorrect	678304	1	239	675710	680337	1	240	678410	2	1609	681970	1	241	681110	mao_11634.png	mao_Stempel.png	mao_Kegel.png	ok
66376	06/30/2021 14:33:02	1	33	30413	684702	1	242	683810	687068	1	243	686510	3	1631	organic	correct	688734	1	243	686510	690484	1	244	689210	2	1032	691550	1	244	689210	695532	1	246	694610	3	1379	organic	correct	696932	1	246	694610	701047	1	248	700010	4	484	701563	1	248	700010	for_15187.png	for_Seehund.png	for_Mandel.png	ok
66376	06/30/2021 14:33:21	1	34	30413	704662	1	249	702710	707628	1	250	705410	2	1063	organic	incorrect	708728	1	251	708110	711610	1	252	710810	3	1111	712760	1	252	710810	715059	1	253	713510	3	2203	organic	correct	717308	1	254	716209	718841	1	254	716209	3	1079	719974	1	255	718910	fou_17118.png	fou_Feige.png	fou_Schmetterling.png	ok
66376	06/30/2021 14:33:39	1	35	30413	723756	1	256	721610	725372	1	257	724309	2	1887	inorganic	correct	727288	1	258	727010	728871	1	258	727010	2	805	729704	1	258	727010	732253	1	259	729710	3	2299	inorganic	incorrect	734586	1	260	732409	736751	1	261	735110	3	1223	738001	1	262	737810	fab_06018.png	fab_Kinderwagen.png	fab_Staubsauger.png	ok
66376	06/30/2021 14:34:00	1	36	30413	741133	1	263	740509	744199	1	264	743210	2	881	inorganic	correct	745115	1	264	743210	748697	1	266	748609	2	1183	749914	1	266	748609	752130	1	267	751310	3	1907	inorganic	correct	754062	1	268	754010	757661	1	269	756709	3	857	758544	1	269	756709	fan_17286.png	fan_Klavier.png	fan_Lampe.png	ok
66376	06/30/2021 14:34:21	1	37	30413	762360	1	271	762109	765325	1	272	764809	2	1721	organic	incorrect	767091	1	272	764809	769824	1	273	767510	2	697	770557	1	274	770209	773806	1	275	772909	3	2788	organic	incorrect	776621	1	276	775610	777921	1	276	775610	2	801	778754	1	277	778309	mon_65798.png	mon_Fuchs.png	mon_Kartoffel.png	ok
66376	06/30/2021 14:34:41	1	38	30413	783003	1	278	781009	785852	1	279	783710	2	1236	organic	incorrect	787118	1	280	786409	790367	1	281	789109	2	620	791017	1	281	789109	794482	1	282	791810	3	1919	organic	correct	796431	1	283	794509	799630	1	284	797209	3	1004	800663	1	285	799910	foc_02157.png	foc_Eule.png	foc_Brombeere.png	ok
66376	06/30/2021 14:35:03	1	39	30413	803862	1	286	802609	806928	1	287	805309	3	1163	inorganic	incorrect	808127	1	288	808010	811710	1	289	810709	2	739	812476	1	289	810709	815658	1	290	813409	2	2198	inorganic	correct	817907	1	291	816109	821256	1	292	818809	2	766	822056	1	293	821509	fax_14883.png	fax_Klebeband.png	fax_Fahrrad.png	ok
66376	06/30/2021 14:35:21	1	40	30413	825505	1	294	824209	828304	1	295	826909	2	1062	inorganic	correct	829387	1	295	826909	832136	1	296	829609	2	428	832603	1	297	832309	835502	1	298	835009	3	2238	inorganic	correct	837767	1	299	837709	839250	1	299	837709	3	973	840250	1	299	837709	fag_06539.png	fag_Geschenk.png	fag_Portemonnaie.png	ok
66376	06/30/2021 14:35:40	1	41	30413	843182	1	301	843109	845532	1	301	843109	3	1491	organic	correct	847048	1	302	845809	849380	1	303	848509	2	561	849963	1	303	848509	854412	1	305	853908	3	2098	organic	correct	856544	1	305	853908	858994	1	306	856609	3	1548	860576	1	307	859309	foq_16799.png	foq_Fenchel.png	foq_Pinguin.png	ok
66376	06/30/2021 14:36:00	1	42	30413	862709	1	308	862008	864492	1	308	862008	2	1045	inorganic	correct	865575	1	309	864709	869107	1	310	867409	2	607	869740	1	310	867409	873705	1	312	872809	3	2252	inorganic	incorrect	875988	1	313	875509	878104	1	313	875509	3	1142	879270	1	314	878208	faw_14215.png	faw_Hufeisen.png	faw_Kuechenmaschine.png	ok
66376	06/30/2021 14:36:19	1	43	30413	882036	1	315	880909	883969	1	316	883609	2	1207	inorganic	correct	885202	1	316	883609	887851	1	317	886308	3	464	888350	1	317	886308	892732	1	319	891709	2	1803	inorganic	correct	894565	1	320	894408	897281	1	321	897109	3	581	897897	1	321	897109	mae_01010.png	mae_Taschenrechner.png	mae_Schach.png	ok
66376	06/30/2021 14:36:39	1	44	30413	901646	1	322	899808	903245	1	323	902508	2	1248	inorganic	correct	904528	1	323	902508	907794	1	324	905209	3	1200	909027	1	325	907908	912642	1	326	910608	2	1016	inorganic	correct	913709	1	327	913309	916474	1	328	916008	3	1248	917774	1	328	916008	maj_01545.png	maj_Krawatte.png	maj_Computermaus.png	ok
66376	06/30/2021 14:36:59	1	45	30413	921539	1	330	921409	923705	1	330	921409	3	780	inorganic	incorrect	924522	1	331	924108	927237	1	332	926808	2	1066	928337	1	332	926808	931536	1	333	929509	3	1776	inorganic	correct	933335	1	334	932208	936451	1	335	934908	4	1846	938334	1	336	937608	mai_06530.png	mai_Auto.png	mai_Gewehr.png	ok
66376	06/30/2021 14:37:19	1	46	30413	940949	1	337	940308	944298	1	338	943008	2	756	inorganic	correct	945081	6	338	943008	949397	1	340	948408	2	888	950313	1	340	948408	952895	1	341	951108	3	1705	inorganic	incorrect	954628	1	342	953808	958194	1	343	956508	3	790	959010	1	343	956508	fat_12032.png	fat_Einkaufswagen.png	fat_Kleiderbuegel.png	ok
66376	06/30/2021 14:37:39	1	47	30413	961659	1	344	959208	964475	1	345	961908	3	1053	organic	correct	965574	1	346	964608	969623	1	347	967308	3	530	970190	1	348	970008	973605	1	349	972708	2	1976	organic	incorrect	975604	1	350	975408	977520	1	350	975408	3	2006	979553	1	351	978108	fov_15046.png	fov_Zucchini.png	fov_Fisch.png	ok
66376	06/30/2021 14:37:57	1	48	30413	981169	1	352	980808	983618	1	353	983508	2	2227	organic	incorrect	985868	1	353	983508	987784	1	354	986208	2	322	988134	1	354	986208	991432	1	355	988908	3	2229	organic	correct	993682	1	356	991607	995681	1	357	994308	3	727	996431	1	357	994308	mof_02408.png	mof_Hahn.png	mof_Spaghetti.png	ok
66376	06/30/2021 14:38:20	1	49	30413	999896	1	359	999707	1003178	1	360	1002408	3	563	organic	correct	1003778	1	360	1002408	1007577	1	361	1005108	4	424	1008027	1	362	1007807	1012325	1	363	1010508	2	1881	organic	correct	1014258	1	364	1013208	1017390	1	365	1015907	3	1942	1019356	1	366	1018608	foe_08514.png	foe_Adler.png	foe_Tannenzapfen.png	ok
66376	06/30/2021 14:38:40	1	50	30413	1022055	1	367	1021308	1023772	1	367	1021308	3	1408	organic	correct	1025204	1	368	1024007	1028637	1	369	1026708	3	854	1029520	1	370	1029407	1033935	1	371	1032107	2	1741	organic	correct	1035701	1	372	1034808	1039300	1	373	1037507	3	808	1040133	1	373	1037507	moj_11860.png	moj_Walnuss.png	moj_Blatt.png	ok
66376	06/30/2021 14:39:02	1	51	30413	1042848	1	374	1040207	1044881	1	375	1042908	2	1165	organic	incorrect	1046081	1	376	1045607	1049213	1	377	1048307	2	922	1050163	1	377	1048307	1054278	1	379	1053707	3	1521	organic	correct	1055827	1	379	1053707	1059576	1	381	1059108	2	887	1060509	1	381	1059108	mom_59641.png	mom_Ei.png	mom_Loewe.png	ok
66376	06/30/2021 14:39:20	1	52	30413	1064674	1	383	1064508	1067090	1	383	1064508	2	831	organic	incorrect	1067957	1	384	1067208	1071189	1	385	1069907	3	441	1071655	1	385	1069907	1074988	1	386	1072607	2	985	organic	correct	1076004	1	387	1075308	1078953	1	388	1078007	4	473	1079453	1	388	1078007	foj_08937.png	foj_Waffel.png	foj_Rose.png	ok
66376	06/30/2021 14:39:40	1	53	30413	1082918	1	389	1080708	1085251	1	390	1083407	2	1303	organic	incorrect	1086584	1	391	1086107	1089233	1	392	1088808	2	469	1089733	1	392	1088808	1093281	1	393	1091507	2	1684	organic	correct	1094998	1	394	1094207	1097330	1	395	1096908	4	677	1098030	1	395	1096908	mot_69770.png	mot_Hotdog.png	mot_Bison.png	ok
66376	06/30/2021 14:40:01	1	54	30413	1102345	1	397	1102307	1104294	1	397	1102307	3	2020	organic	correct	1106344	1	398	1105007	1108976	1	399	1107707	3	937	1109959	1	399	1107707	1113975	1	401	1113108	3	1388	organic	correct	1115407	1	401	1113108	1118840	1	403	1118507	3	2362	1121239	1	403	1118507	moh_07125.png	moh_Birne.png	moh_Muecke.png	ok
66376	06/30/2021 14:40:19	1	55	30413	1123888	1	404	1121207	1126120	1	405	1123907	2	907	organic	incorrect	1127053	1	406	1126607	1130469	1	407	1129307	3	909	1131402	1	407	1129307	1133918	1	408	1132007	2	2448	organic	incorrect	1136400	1	409	1134707	1137916	1	410	1137407	2	637	1138583	1	410	1137407	foa_00426.png	foa_Aubergine.png	foa_Marienkaefer.png	ok
66376	06/30/2021 14:40:39	1	56	30413	1141265	1	411	1140107	1144631	1	412	1142807	2	877	inorganic	correct	1145531	1	413	1145507	1149013	1	414	1148207	3	379	1149429	1	414	1148207	1152911	1	415	1150907	3	1875	inorganic	correct	1154811	1	416	1153607	1157510	1	417	1156307	4	454	1158010	1	417	1156307	mak_03979.png	mak_Socken.png	mak_Rucksack.png	ok
66376	06/30/2021 14:41:00	1	57	30413	1161808	1	419	1161707	1163791	1	419	1161707	3	641	inorganic	incorrect	1164474	1	420	1164408	1168323	1	421	1167107	2	1455	1169806	1	421	1167107	1172488	1	422	1169807	0	0	inorganic	miss	1172488	1	424	1175206	1177303	1	424	1175206	2	1102	1178436	1	425	1177907	far_06518.png	far_Giesskanne.png	far_Heissluftballon.png	ok
66376	06/30/2021 14:41:20	1	58	30413	1182635	1	426	1180607	1184884	1	427	1183307	2	1416	inorganic	correct	1186333	1	428	1186008	1188516	1	428	1186008	2	469	1189016	1	429	1188707	1193481	1	430	1191407	2	1084	inorganic	correct	1194597	1	431	1194107	1197296	1	432	1196807	4	485	1197813	1	432	1196807	fac_02970.png	fac_Ohrring.png	fac_Haarbuerste.png	ok
66376	06/30/2021 14:41:41	1	59	30413	1202211	1	433	1199506	1204961	1	435	1204908	3	1128	organic	correct	1206110	1	435	1204908	1209992	1	436	1207607	2	741	1210775	1	437	1210308	1214291	1	438	1213007	2	1905	organic	correct	1216223	1	439	1215707	1219272	1	440	1218408	3	951	1220255	1	440	1218408	fop_07937.png	fop_Koala.png	fop_Mango.png	ok
66376	06/30/2021 14:42:00	1	60	30413	1223054	1	441	1221107	1225087	1	442	1223807	3	1682	organic	correct	1226803	1	443	1226508	1229652	1	444	1229207	2	444	1230119	1	444	1229207	1234334	1	445	1231907	3	1536	organic	correct	1235900	1	446	1234608	1238466	1	447	1237307	2	568	1239066	1	447	1237307	mos_23223.png	mos_Eintagsfliege.png	mos_Traube.png	ok
66376	06/30/2021 14:42:20	1	61	30413	1242565	1	448	1240007	1244930	1	449	1242708	2	724	organic	incorrect	1245680	1	450	1245407	1248946	1	451	1248107	3	542	1249512	1	451	1248107	1252727	6	452	1250808	3	2188	organic	correct	1254944	1	453	1253507	1257743	1	454	1256207	2	448	1258243	1	454	1256207	mog_03277.png	mog_Fledermaus.png	mog_Pilz.png	ok
66376	06/30/2021 14:42:42	1	62	30413	1262375	1	456	1261607	1264790	1	457	1264307	2	1311	inorganic	correct	1266123	1	457	1264307	1269472	1	458	1267007	2	452	1269955	1	459	1269707	1274704	1	460	1272407	2	1536	inorganic	correct	1276270	1	461	1275107	1279569	1	462	1277807	3	575	1280169	1	462	1277807	mat_23754.png	mat_Feuerzeug.png	mat_Helm.png	ok
66376	06/30/2021 14:43:00	1	63	30413	1284267	1	464	1283207	1286850	1	465	1285907	2	691	inorganic	correct	1287566	1	465	1285907	1291215	1	466	1288607	3	297	1291548	1	467	1291307	1294730	1	468	1294007	3	1501	inorganic	incorrect	1296263	1	468	1294007	1298729	1	469	1296707	3	744	1299495	1	470	1299407	mas_41937.png	mas_Bueroklammer.png	mas_Tisch.png	ok
66376	06/30/2021 14:43:21	1	64	30413	1302694	1	471	1302107	1305510	1	472	1304806	3	405	organic	correct	1305960	1	472	1304806	1309242	1	473	1307507	3	753	1310042	1	473	1307507	1313791	1	475	1312906	2	1792	organic	correct	1315607	1	475	1312906	1318589	1	477	1318307	3	749	1319372	1	477	1318307	foi_05187.png	foi_Pflanze.png	foi_Apfelkuchen.png	ok
66376	06/30/2021 14:43:42	1	65	30413	1322954	1	478	1321006	1326436	1	480	1326407	2	725	inorganic	correct	1327186	1	480	1326407	1331585	1	481	1329106	2	451	1332068	1	482	1331807	1336616	1	483	1334507	2	2026	inorganic	correct	1338666	1	484	1337206	1340382	1	485	1339907	2	1399	1341814	1	485	1339907	fal_07977.png	fal_Korb.png	fal_Buegeleisen.png	ok
66376	06/30/2021 14:44:03	1	66	30413	1344830	1	486	1342607	1347396	1	487	1345306	2	1268	organic	incorrect	1348695	1	488	1348007	1351345	1	489	1350706	3	520	1351894	1	489	1350706	1356043	1	490	1353406	2	2125	organic	correct	1358209	1	491	1356107	1361358	1	492	1358806	2	1251	1362641	1	493	1361506	mob_22833.png	mob_Igel.png	mob_Kiwi.png	ok
66376	06/30/2021 14:44:21	1	67	30413	1365923	1	494	1364207	1368289	1	495	1366906	2	1302	inorganic	correct	1369622	1	495	1366906	1372004	1	496	1369606	3	875	1372904	1	497	1372307	1375520	1	498	1375006	3	1305	inorganic	correct	1376853	1	498	1375006	1379202	1	499	1377706	4	856	1380085	1	499	1377706	mal_20552.png	mal_Drucker.png	mal_Kugelschreiber.png	ok
66376	06/30/2021 14:44:40	1	68	30413	1383450	1	501	1383106	1386133	1	502	1385806	2	944	inorganic	correct	1387099	1	502	1385806	1390082	1	503	1388507	4	518	1390631	1	503	1388507	1394313	1	505	1393906	2	665	inorganic	correct	1395013	1	505	1393906	1398695	1	506	1396606	4	417	1399145	1	506	1396606	mac_59752.png	mac_Medaille.png	mac_Dartpfeil.png	ok
66376	06/30/2021 14:44:59	1	69	30413	1402427	1	508	1402006	1405010	1	509	1404706	3	936	inorganic	incorrect	1405993	1	509	1404706	1409908	1	510	1407406	2	341	1410291	1	511	1410106	1413307	1	512	1412806	2	1229	inorganic	correct	1414557	1	512	1412806	1418272	1	514	1418206	3	633	1418939	1	514	1418206	mau_58144.png	mau_Leiter.png	mau_Wasserventil.png	ok
66376	06/30/2021 14:45:22	1	70	30413	1421821	1	515	1420906	1425120	1	516	1423606	2	1027	organic	incorrect	1426169	1	516	1423606	1429918	1	518	1429006	3	327	1430268	1	518	1429006	1435133	1	520	1434406	3	2280	organic	correct	1437449	1	521	1437106	1440131	1	522	1439806	3	2140	1442297	1	522	1439806	moe_23630.png	moe_Waschbaer.png	moe_Pommes.png	ok
66376	06/30/2021 14:45:43	1	71	30413	1444530	1	523	1442505	1446379	1	524	1445206	2	1652	inorganic	correct	1448062	1	525	1447906	1451578	1	526	1450606	2	446	1452061	1	526	1450606	1456443	1	528	1456006	2	1327	inorganic	correct	1457809	1	528	1456006	1461591	1	530	1461406	3	531	1462157	1	530	1461406	faj_07849.png	faj_Schuh.png	faj_Parfuem.png	ok
66376	06/30/2021 14:46:02	1	72	30413	1465689	1	531	1464106	1468439	1	532	1466805	3	821	organic	correct	1469288	1	532	1466805	1473337	1	534	1472206	4	370	1473737	1	534	1472206	1476752	1	535	1474905	2	970	organic	correct	1477752	1	536	1477606	1480618	1	537	1480306	4	473	1481118	1	537	1480306	mou_06524.png	mou_Kraehe.png	mou_Croissant.png	ok
66376	06/30/2021 14:46:23	1	73	30413	1484067	1	538	1483005	1486532	1	539	1485706	3	1473	inorganic	incorrect	1488032	1	539	1485706	1490681	1	540	1488405	2	461	1491164	1	541	1491105	1494913	1	542	1493806	2	1374	inorganic	correct	1496312	1	542	1493806	1500128	1	544	1499205	3	622	1500778	1	544	1499205	fai_07637.png	fai_Kommode.png	fai_Foehn.png	ok
66376	06/30/2021 14:46:43	1	74	30413	1505443	1	546	1504605	1508825	1	547	1507305	3	896	organic	correct	1509775	1	547	1507305	1514190	1	549	1512705	3	943	1515156	1	549	1512705	1517805	1	550	1515406	3	1726	organic	correct	1519555	1	551	1518106	1521921	1	552	1520805	3	1338	1523287	1	552	1520805	mol_11363.png	mol_Schimpanse.png	mol_Pizza.png	ok
66376	06/30/2021 14:47:04	1	75	30413	1525919	1	553	1523505	1528185	1	554	1526205	2	585	organic	incorrect	1528802	1	554	1526205	1533083	1	556	1531605	3	380	1533500	1	556	1531605	1537765	1	558	1537005	2	1707	organic	correct	1539498	1	558	1537005	1541764	1	559	1539706	4	543	1542330	1	559	1539706	fok_09860.png	fok_Kaenguruh.png	fok_Palme.png	ok
66376	06/30/2021 14:47:24	1	76	30413	1545996	1	561	1545105	1549445	1	562	1547806	3	734	organic	correct	1550211	1	562	1547806	1553327	1	564	1553205	3	405	1553776	1	564	1553205	1558292	1	565	1555906	2	1312	organic	correct	1559641	1	566	1558605	1562940	1	567	1561305	4	424	1563390	1	567	1561305	fot_06092.png	fot_Salat.png	fot_Taube.png	ok
66376	06/30/2021 14:47:44	1	77	30413	1566872	1	569	1566705	1568988	1	569	1566705	2	839	inorganic	correct	1569854	1	570	1569405	1572720	1	571	1572106	3	1036	1573786	1	571	1572106	1576985	1	572	1574805	3	1449	inorganic	incorrect	1578468	1	573	1577505	1582334	1	574	1580205	3	287	1582650	1	574	1580205	mao_19000.png	mao_Kegel.png	mao_Stempel.png	ok
66376	06/30/2021 14:48:04	1	78	30413	1586316	1	576	1585605	1588398	1	577	1588305	2	804	inorganic	correct	1589231	1	577	1588305	1591814	1	578	1591005	2	1012	1592863	1	578	1591005	1596729	1	580	1596405	3	1473	inorganic	correct	1598228	1	580	1596405	1601827	1	582	1601805	3	797	1602677	1	582	1601805	fap_17119.png	fap_Kissen.png	fap_Knopf.png	ok
66376	06/30/2021 14:48:24	1	79	30413	1606059	1	583	1604505	1608625	1	584	1607205	3	529	inorganic	incorrect	1609191	1	584	1607205	1611974	1	585	1609905	2	396	1612407	1	585	1609905	1617222	1	587	1615305	2	1280	inorganic	incorrect	1618538	1	588	1618005	1621537	1	589	1620705	2	505	1622070	1	589	1620705	maw_22459.png	maw_Pingpongschlaeger.png	maw_Schlauchboot.png	ok
66376	06/30/2021 14:48:42	1	80	30413	1626402	1	591	1626104	1628618	1	591	1626104	2	1980	inorganic	correct	1630634	1	592	1628805	1632033	1	593	1631505	2	509	1632567	1	593	1631505	1636232	1	594	1634204	3	1789	inorganic	incorrect	1638048	1	595	1636905	1639831	1	596	1639605	2	1103	1640964	1	596	1639605	map_49576.png	map_Pfeife.png	map_Globus.png	ok
66376	06/30/2021 14:49:04	1	81	30413	1644396	1	597	1642304	1647462	1	598	1645005	3	1326	inorganic	incorrect	1648811	1	599	1647705	1652510	1	600	1650404	2	306	1652860	1	600	1650404	1656925	1	602	1655805	3	1446	inorganic	correct	1658391	1	602	1655805	1661757	1	604	1661205	3	427	1662207	1	604	1661205	fan_18894.png	fan_Lampe.png	fan_Klavier.png	ok
66376	06/30/2021 14:49:25	1	82	30413	1666405	1	605	1663905	1669954	1	607	1669305	3	1239	inorganic	incorrect	1671220	1	607	1669305	1673736	1	608	1672004	2	361	1674119	1	608	1672004	1677402	1	609	1674704	2	1637	inorganic	incorrect	1679068	1	610	1677405	1682900	1	612	1682804	2	417	1683350	1	612	1682804	fab_06286.png	fab_Staubsauger.png	fab_Kinderwagen.png	ok
66376	06/30/2021 14:49:45	1	83	30413	1687132	1	613	1685505	1689414	1	614	1688204	3	661	organic	correct	1690097	1	614	1688204	1694529	1	616	1693605	3	401	1694962	1	616	1693605	1698311	1	617	1696304	3	1614	organic	correct	1699961	1	618	1699004	1702576	1	619	1701705	4	991	1703609	1	619	1701705	fou_18966.png	fou_Schmetterling.png	fou_Feige.png	ok
66376	06/30/2021 14:50:06	1	84	30413	1707725	1	621	1707104	1710540	1	622	1709804	2	1294	organic	incorrect	1711857	1	622	1709804	1714272	1	623	1712504	2	1527	1715822	1	624	1715204	1719337	1	625	1717904	3	2202	organic	correct	1721570	1	626	1720604	1724086	1	627	1723304	2	379	1724502	1	627	1723304	for_15880.png	for_Mandel.png	for_Seehund.png	ok
66376	06/30/2021 14:50:27	1	85	30413	1728001	1	628	1726004	1731200	1	629	1728704	3	831	organic	correct	1732066	1	630	1731404	1735465	1	631	1734104	2	778	1736282	1	631	1734104	1739247	1	632	1736804	3	1137	organic	correct	1740414	1	633	1739505	1744279	1	634	1742204	4	307	1744612	1	634	1742204	mon_69587.png	mon_Kartoffel.png	mon_Fuchs.png	ok
66376	06/30/2021 14:50:46	1	86	30413	1749411	1	636	1747604	1751077	1	637	1750304	3	1196	inorganic	incorrect	1752326	1	637	1750304	1755092	1	638	1753004	3	373	1755509	1	638	1753004	1758574	1	640	1758404	2	1331	inorganic	correct	1759940	1	640	1758404	1763073	1	641	1761104	2	2189	1765289	1	642	1763803	fag_06551.png	fag_Portemonnaie.png	fag_Geschenk.png	ok
66376	06/30/2021 14:51:07	1	87	30413	1768288	1	643	1766504	1770387	1	644	1769204	2	1533	organic	incorrect	1771953	1	645	1771903	1775552	1	646	1774604	3	450	1776035	1	646	1774604	1779401	1	647	1777304	3	1649	organic	correct	1781083	1	648	1780003	1783982	1	649	1782704	4	413	1784432	1	649	1782704	foc_02664.png	foc_Brombeere.png	foc_Eule.png	ok
66376	06/30/2021 14:51:28	1	88	30413	1788997	1	651	1788103	1791930	1	652	1790804	2	1124	inorganic	correct	1793079	1	652	1790804	1795962	1	653	1793504	2	1239	1797228	1	654	1796203	1800277	1	655	1798904	2	2086	inorganic	correct	1802409	1	656	1801603	1804742	1	657	1804303	3	517	1805308	1	657	1804303	fax_15310.png	fax_Fahrrad.png	fax_Klebeband.png	ok
66376	06/30/2021 14:51:47	1	89	30413	1810090	1	659	1809703	1812123	1	659	1809703	3	1844	inorganic	incorrect	1813989	1	660	1812403	1816455	1	661	1815104	2	430	1816921	1	661	1815104	1821670	1	663	1820503	2	1248	inorganic	correct	1822953	1	663	1820503	1825518	1	664	1823204	3	1026	1826568	1	665	1825903	maj_01546.png	maj_Computermaus.png	maj_Krawatte.png	ok
66376	06/30/2021 14:52:05	1	90	30413	1829517	1	666	1828603	1831666	1	667	1831304	2	1669	inorganic	correct	1833366	1	667	1831304	1835048	1	668	1834003	2	931	1836015	1	668	1834003	1838647	1	669	1836703	2	2545	inorganic	incorrect	1841213	1	670	1839404	1843696	1	671	1842103	2	321	1844045	1	671	1842103	faw_14685.png	faw_Kuechenmaschine.png	faw_Hufeisen.png	ok
66376	06/30/2021 14:52:25	1	91	30413	1847611	1	673	1847503	1849410	1	673	1847503	2	513	inorganic	correct	1849977	1	673	1847503	1853559	1	675	1852904	4	492	1854092	1	675	1852904	1858807	1	677	1858303	2	628	inorganic	correct	1859457	1	677	1858303	1864355	1	679	1863703	4	279	1864672	1	679	1863703	mae_36426.png	mae_Schach.png	mae_Taschenrechner.png	ok
66376	06/30/2021 14:52:46	1	92	30413	1867804	1	680	1866403	1870303	1	681	1869104	2	1550	organic	incorrect	1871886	1	682	1871804	1874618	1	683	1874504	2	727	1875368	1	683	1874504	1879200	1	684	1877203	2	1331	organic	correct	1880566	1	685	1879904	1884315	1	686	1882604	4	573	1884915	1	686	1882604	foq_17341.png	foq_Pinguin.png	foq_Fenchel.png	ok
66376	06/30/2021 14:53:05	1	93	30413	1888814	1	688	1888004	1890896	1	689	1890704	2	632	inorganic	correct	1891563	1	689	1890704	1894528	1	690	1893403	4	357	1894912	1	690	1893403	1899460	1	692	1898803	3	728	inorganic	correct	1900227	1	692	1898803	1903226	1	693	1901504	4	304	1903575	1	693	1901504	mai_23761.png	mai_Gewehr.png	mai_Auto.png	ok
66376	06/30/2021 14:53:24	1	94	30413	1906991	1	695	1906904	1908957	1	695	1906904	2	698	organic	incorrect	1909690	1	696	1909603	1913739	1	697	1912304	3	364	1914138	1	697	1912304	1917337	1	698	1915004	2	2071	organic	correct	1919437	1	699	1917703	1921836	1	700	1920404	3	389	1922252	1	700	1920404	mof_06901.png	mof_Spaghetti.png	mof_Hahn.png	ok
66376	06/30/2021 14:53:45	1	95	30413	1926501	1	702	1925803	1929500	1	703	1928504	2	1731	inorganic	correct	1931266	1	704	1931204	1933899	1	704	1931204	2	652	1934582	1	705	1933903	1939030	1	706	1936604	2	1566	inorganic	incorrect	1940630	1	707	1939303	1943395	1	708	1942003	2	428	1943845	1	708	1942003	fat_14140.png	fat_Kleiderbuegel.png	fat_Einkaufswagen.png	ok
66376	06/30/2021 14:54:05	1	96	30413	1947477	1	710	1947403	1949143	1	710	1947403	2	1184	organic	incorrect	1950376	1	711	1950103	1953109	1	712	1952804	2	847	1954008	1	712	1952804	1957907	1	713	1955503	2	2193	organic	incorrect	1960123	1	714	1958203	1962339	1	715	1960904	2	704	1963072	1	715	1960904	fov_15193.png	fov_Fisch.png	fov_Zucchini.png	ok
