ID	DateTime	Run	Delayed_Retrieval_Trial	First_Pulse_Time	FaceRecog_OnsetTime	FaceRecog_OnsetTimeUncertainty	FaceRecog_fMRI_Pulse	FaceRecog_fMRI_PulseTime	Assoc_Retrieval_OnsetTime	Assoc_Retrieval_OnsetTimeUncertainty	Assoc_Retrieval_fMRI_Pulse	Assoc_Retrieval_fMRI_PulseTime	Assoc_Retrieval_Pressed_Button	Assoc_Retrieval_RT	Assoc_Retrieval_Response_Category	Assoc_Retrieval_Accuracy	Assoc_Retrieval_Feedback_OnsetTime	Assoc_Retrieval_Feedback_OnsetTimeUncertainty	Assoc_Retrieval_Feedback_fMRI_Pulse	Assoc_Retrieval_Feedback_fMRI_PulseTime	Retrieval_consc_Rating_OnsetTime	Retrieval_consc_Rating_OnsetTimeUncertainty	Retrieval_consc_Rating_fMRI_Pulse	Retrieval_consc_Rating_fMRI_PulseTime	Retrieval_consc_Rating_Pressed_Button	Retrieval_consc_Rating_RT	Retrieval_consc_Rating_Feedback_OnsetTime	Retrieval_consc_Rating_Feedback_OnsetTimeUncertainty	Retrieval_consc_Rating_Feedback_fMRI_Pulse	Retrieval_consc_Rating_Feedback_fMRI_PulseTime	ForcedChoice_OnsetTime	ForcedChoice_OnsetTimeUncertainty	ForcedChoice_fMRI_Pulse	ForcedChoice_fMRI_PulseTime	ForcedChoice_Pressed_Button	ForcedChoice_RT	ForcedChoice_Response_Category	ForcedChoice_Accuracy	ForcedChoice_Feedback_OnsetTime	ForcedChoice_Feedback_OnsetTimeUncertainty	ForcedChoice_Feedback_fMRI_Pulse	ForcedChoice_Feedback_fMRI_PulseTime	Recognition_consc_Rating_OnsetTime	Recognition_consc_Rating_OnsetTimeUncertainty	Recognition_consc_Rating_fMRI_Pulse	Recognition_consc_Rating_fMRI_PulseTime	Recognition_consc_Rating_Pressed_Button	Recognition_consc_Rating_RT	Recognition_consc_Rating_Feedback_OnsetTime	Recognition_consc_Rating_Feedback_OnsetTimeUncertainty	Recognition_consc_Rating_Feedback_fMRI_Pulse	Recognition_consc_Rating_Feedback_fMRI_PulseTime	Presented_Person	Presented_Target	Presented_Lure	TrialStatus
67367	07/07/2021 15:07:53	1	1	45004	58030	1	5	55804	60979	1	6	58503	2	1105	inorganic	correct	62112	1	7	61204	64728	1	8	63904	3	1293	66044	1	8	63904	68776	1	9	66603	3	1716	inorganic	correct	70526	1	10	69304	72958	1	11	72004	4	902	73891	1	11	72004	mas_41366.png	mas_Bueroklammer.png	mas_Tisch.png	ok
67367	07/07/2021 15:08:15	1	2	45004	76374	1	12	74703	78540	1	13	77404	2	909	inorganic	correct	79473	1	13	77404	82921	1	15	82803	4	406	83355	1	15	82803	88070	1	16	85504	3	1952	inorganic	correct	90069	1	17	88203	93001	1	18	90903	4	564	93618	1	18	90903	mal_04470.png	mal_Drucker.png	mal_Kugelschreiber.png	ok
67367	07/07/2021 15:08:34	1	3	45004	98116	1	20	96303	99816	1	21	99003	3	2073	inorganic	incorrect	101915	1	22	101704	104214	1	22	101704	2	427	104664	1	23	104403	108146	1	24	107103	2	1772	inorganic	correct	109946	1	25	109804	112378	1	25	109804	3	2438	114844	1	26	112503	mao_11634.png	mao_Stempel.png	mao_Kegel.png	ok
67367	07/07/2021 15:08:54	1	4	45004	117193	1	27	115203	120442	1	28	117904	3	1081	inorganic	incorrect	121558	1	29	120603	124291	1	30	123303	4	389	124707	1	30	123303	128573	1	31	126004	3	2951	inorganic	correct	131555	1	33	131403	132505	1	33	131403	2	584	133121	1	33	131403	fai_07494.png	fai_Foehn.png	fai_Kommode.png	ok
67367	07/07/2021 15:09:15	1	5	45004	137186	1	35	136803	140552	1	36	139503	2	564	organic	incorrect	141168	1	36	139503	144734	1	37	142203	3	977	145734	1	38	144903	148316	1	39	147603	3	2075	organic	correct	150415	1	40	150303	153381	1	41	153003	2	1357	154764	1	41	153003	foq_16799.png	foq_Pinguin.png	foq_Fenchel.png	ok
67367	07/07/2021 15:09:37	1	6	45004	158563	1	43	158403	161612	1	44	161103	2	550	organic	incorrect	162195	1	44	161103	166427	1	45	163803	3	479	166943	1	46	166503	171142	1	47	169203	2	2705	organic	correct	173874	1	48	171902	175407	1	49	174603	3	728	176173	1	49	174603	mol_07679.png	mol_Schimpanse.png	mol_Pizza.png	ok
67367	07/07/2021 15:09:57	1	7	45004	179939	1	50	177303	182471	1	51	180002	2	684	organic	incorrect	183188	1	52	182703	186670	1	53	185403	2	338	187036	1	53	185403	191851	1	55	190803	2	1984	organic	correct	193867	1	56	193503	197083	1	57	196202	2	651	197766	1	57	196202	fot_00797.png	fot_Taube.png	fot_Salat.png	ok
67367	07/07/2021 15:10:16	1	8	45004	200448	1	58	198903	203231	1	59	201603	3	929	organic	correct	204197	1	59	201603	207663	1	61	207003	4	603	208296	1	61	207003	211728	1	62	209703	2	1783	organic	correct	213544	1	63	212402	215810	1	64	215103	4	1087	216926	1	64	215103	fou_17118.png	fou_Feige.png	fou_Schmetterling.png	ok
67367	07/07/2021 15:10:35	1	9	45004	219192	1	65	217802	221225	1	66	220502	2	1835	inorganic	correct	223091	1	66	220502	226056	1	68	225902	3	244	226323	1	68	225902	230172	1	69	228602	0	0	inorganic	miss	230172	1	70	231303	235003	1	71	234002	3	1065	236103	1	71	234002	fag_06539.png	fag_Portemonnaie.png	fag_Geschenk.png	ok
67367	07/07/2021 15:10:56	1	10	45004	238486	1	72	236702	240885	1	73	239403	3	662	organic	correct	241601	1	73	239403	246116	1	75	244802	4	353	246500	1	75	244802	249499	1	76	247503	2	2264	organic	incorrect	251798	1	77	250202	254664	1	78	252902	3	781	255480	1	78	252902	fok_09378.png	fok_Kaenguruh.png	fok_Palme.png	ok
67367	07/07/2021 15:11:17	1	11	45004	259162	1	80	258302	262244	1	81	261002	2	1949	inorganic	correct	264227	1	82	263702	267576	1	83	266402	4	1530	269142	1	84	269102	272507	1	85	271802	2	571	inorganic	correct	273107	1	85	271802	276973	1	86	274502	4	390	277389	1	87	277202	maw_04767.png	maw_Schlauchboot.png	maw_Pingpongschlaeger.png	ok
67367	07/07/2021 15:11:36	1	12	45004	280538	1	88	279902	282521	1	88	279902	2	1730	organic	incorrect	284287	1	89	282602	287086	1	90	285302	3	506	287636	1	90	285302	290685	1	91	288002	2	1340	organic	correct	292051	1	92	290702	295433	1	93	293402	4	527	295983	1	93	293402	moj_11821.png	moj_Blatt.png	moj_Walnuss.png	ok
67367	07/07/2021 15:11:55	1	13	45004	299565	1	95	298802	302797	1	96	301502	3	329	inorganic	incorrect	303164	1	96	301502	306496	1	97	304202	2	354	306879	1	97	304202	310828	1	99	309601	3	1473	inorganic	correct	312327	1	100	312302	314710	1	100	312302	2	371	315110	1	101	315002	faw_14215.png	faw_Kuechenmaschine.png	faw_Hufeisen.png	ok
67367	07/07/2021 15:12:15	1	14	45004	318142	1	102	317701	320725	1	103	320402	2	628	organic	incorrect	321374	1	103	320402	324423	1	104	323102	3	303	324757	1	104	323102	328022	1	105	325801	3	1381	organic	correct	329438	1	106	328502	333337	1	107	331202	4	254	333620	1	107	331202	mou_01862.png	mou_Croissant.png	mou_Kraehe.png	ok
67367	07/07/2021 15:12:36	1	15	45004	338085	1	109	336602	340951	1	110	339302	3	1668	organic	correct	342650	1	111	342001	345816	1	112	344702	3	228	346066	1	112	344702	349781	1	113	347402	2	2328	organic	correct	352131	1	114	350101	354813	1	115	352802	2	318	355163	1	115	352802	for_15187.png	for_Mandel.png	for_Seehund.png	ok
67367	07/07/2021 15:12:57	1	16	45004	359378	1	117	358201	361777	1	118	360902	3	1418	organic	correct	363227	1	118	360902	366126	1	119	363601	4	488	366642	1	120	366301	370391	1	121	369002	2	459	organic	correct	370874	1	121	369002	375589	1	123	374401	4	539	376156	1	123	374401	foi_03389.png	foi_Pflanze.png	foi_Apfelkuchen.png	ok
67367	07/07/2021 15:13:18	1	17	45004	380371	1	125	379801	383870	1	126	382501	3	1096	organic	correct	385003	1	126	382501	388985	1	128	387901	4	340	389368	1	128	387901	392400	1	129	390601	2	549	organic	correct	392983	1	129	390601	396332	1	131	396001	4	542	396899	1	131	396001	fop_00621.png	fop_Koala.png	fop_Mango.png	ok
67367	07/07/2021 15:13:35	1	18	45004	400731	1	132	398701	402714	1	133	401402	3	852	organic	correct	403597	1	133	401402	406696	1	134	404101	4	424	407145	1	135	406801	410528	1	136	409501	2	651	organic	correct	411211	1	136	409501	414510	1	137	412201	4	608	415143	1	138	414901	mom_59361.png	mom_Ei.png	mom_Loewe.png	ok
67367	07/07/2021 15:13:55	1	19	45004	418058	1	139	417601	420957	1	140	420301	2	1826	inorganic	correct	422807	1	140	420301	425273	1	141	423001	4	184	425489	1	141	423001	429704	1	143	428401	2	475	inorganic	correct	430204	1	143	428401	433303	1	144	431101	4	279	433620	1	144	431101	fan_17286.png	fan_Klavier.png	fan_Lampe.png	ok
67367	07/07/2021 15:14:15	1	20	45004	437752	1	146	436501	441334	1	147	439201	2	545	organic	incorrect	441900	1	147	439201	444683	1	149	444601	3	713	445432	1	149	444601	449848	1	150	447301	2	2527	organic	correct	452397	1	151	450001	454113	1	152	452701	2	827	454963	1	152	452701	foa_00207.png	foa_Marienkaefer.png	foa_Aubergine.png	ok
67367	07/07/2021 15:14:35	1	21	45004	458561	1	154	458101	461360	1	155	460801	3	578	organic	correct	461960	1	155	460801	466392	1	157	466201	3	323	466742	1	157	466201	470107	1	158	468901	3	1306	organic	correct	471440	1	158	468901	473956	1	159	471601	4	1429	475422	1	160	474301	moh_06446.png	moh_Birne.png	moh_Muecke.png	ok
67367	07/07/2021 15:14:55	1	22	45004	477822	1	161	477001	479921	1	162	479701	3	898	organic	correct	480854	1	162	479701	483520	1	163	482401	4	499	484069	1	163	482401	488185	1	165	487801	2	1238	organic	correct	489451	1	165	487801	493183	1	166	490501	3	475	493683	1	167	493201	fov_15046.png	fov_Zucchini.png	fov_Fisch.png	ok
67367	07/07/2021 15:15:15	1	23	45004	498465	1	168	495901	500364	1	169	498601	2	1352	inorganic	correct	501747	1	170	501300	505629	1	171	504001	4	249	505912	1	171	504001	509994	1	173	509400	3	893	inorganic	correct	510910	1	173	509400	514076	1	174	512100	4	491	514592	1	174	512100	mat_23275.png	mat_Helm.png	mat_Feuerzeug.png	ok
67367	07/07/2021 15:15:36	1	24	45004	517975	1	176	517500	519657	1	176	517500	3	1381	organic	correct	521074	1	177	520201	524173	1	178	522901	4	564	524772	1	178	522901	528854	1	180	528301	2	1234	organic	correct	530121	1	180	528301	533503	1	181	531001	4	502	534053	1	182	533700	foc_02157.png	foc_Eule.png	foc_Brombeere.png	ok
67367	07/07/2021 15:15:57	1	25	45004	538751	1	183	536401	541034	1	184	539101	2	845	inorganic	correct	541900	1	185	541800	546182	1	186	544501	4	400	546615	1	186	544501	550564	1	188	549900	3	897	inorganic	correct	551497	1	188	549900	554696	1	189	552601	4	989	555712	1	190	555300	mae_01010.png	mae_Schach.png	mae_Taschenrechner.png	ok
67367	07/07/2021 15:16:17	1	26	45004	559844	1	191	558000	561893	1	192	560701	2	2235	organic	incorrect	564159	1	193	563400	567108	1	194	566100	3	252	567391	1	194	566100	570507	1	195	568801	3	2552	organic	correct	573089	1	196	571500	575439	1	197	574200	2	279	575755	1	197	574200	mof_02408.png	mof_Spaghetti.png	mof_Hahn.png	ok
67367	07/07/2021 15:16:38	1	27	45004	579804	1	199	579600	583253	1	200	582300	3	781	organic	correct	584086	1	200	582300	588584	1	202	587700	3	258	588867	1	202	587700	593432	1	204	593100	3	562	organic	correct	594016	1	204	593100	597998	1	205	595800	4	242	598264	1	205	595800	mon_65798.png	mon_Fuchs.png	mon_Kartoffel.png	ok
67367	07/07/2021 15:16:59	1	28	45004	601413	1	207	601200	604779	1	208	603900	2	1828	organic	incorrect	606628	1	209	606600	609910	1	210	609300	3	809	610743	1	210	609300	613276	1	211	612000	3	1643	organic	correct	614942	1	212	614700	617025	1	212	614700	3	723	617774	1	213	617400	mog_03090.png	mog_Fledermaus.png	mog_Pilz.png	ok
67367	07/07/2021 15:17:20	1	29	45004	622306	1	214	620100	625722	1	216	625500	2	1401	inorganic	correct	627154	1	216	625500	630270	1	217	628200	4	194	630487	1	217	628200	635435	1	219	633600	3	573	inorganic	correct	636051	1	219	633600	639267	1	221	638999	4	698	640000	1	221	638999	fat_12032.png	fat_Kleiderbuegel.png	fat_Einkaufswagen.png	ok
67367	07/07/2021 15:17:42	1	30	45004	642649	1	222	641700	645632	1	223	644400	3	601	organic	correct	646265	1	223	644400	650830	1	225	649800	4	200	651063	1	225	649800	655628	1	227	655199	3	497	organic	correct	656161	1	227	655199	661193	1	229	660600	4	211	661426	1	229	660600	mob_00760.png	mob_Igel.png	mob_Kiwi.png	ok
67367	07/07/2021 15:18:01	1	31	45004	664892	1	230	663299	668257	1	231	666000	2	1186	inorganic	correct	669473	1	232	668700	671773	1	233	671399	3	680	672489	1	233	671399	675471	1	234	674100	2	1335	inorganic	incorrect	676838	1	235	676800	680470	1	236	679499	3	223	680720	1	236	679499	fal_07906.png	fal_Buegeleisen.png	fal_Korb.png	ok
67367	07/07/2021 15:18:21	1	32	45004	683952	1	237	682200	685835	1	238	684899	2	1569	inorganic	correct	687434	1	238	684899	690733	1	240	690300	3	684	691449	1	240	690300	695281	1	241	692999	3	1125	inorganic	correct	696431	1	242	695699	699463	1	243	698400	3	1071	700563	1	243	698400	maj_01545.png	maj_Krawatte.png	maj_Computermaus.png	ok
67367	07/07/2021 15:18:40	1	33	45004	703962	1	245	703799	706944	1	246	706500	2	1025	inorganic	correct	707994	1	246	706500	710843	1	247	709199	3	1036	711909	1	247	709199	714825	1	249	714600	3	1643	inorganic	correct	716491	1	249	714600	720073	1	251	719999	3	379	720490	1	251	719999	mac_59169.png	mac_Dartpfeil.png	mac_Medaille.png	ok
67367	07/07/2021 15:19:00	1	34	45004	723439	1	252	722700	726837	1	253	725399	2	2033	inorganic	correct	728903	1	254	728099	732152	1	255	730799	4	754	732952	1	255	730799	735784	1	256	733499	2	694	inorganic	correct	736501	1	257	736199	740150	1	258	738899	4	1744	741916	1	259	741599	far_00736.png	far_Heissluftballon.png	far_Giesskanne.png	ok
67367	07/07/2021 15:19:20	1	35	45004	743515	1	259	741599	745564	1	260	744299	2	452	inorganic	correct	746048	1	260	744299	749330	1	261	746999	4	1150	750513	1	262	749699	754361	1	263	752399	3	667	inorganic	correct	755061	1	263	752399	758077	1	265	757799	4	631	758743	1	265	757799	map_41499.png	map_Pfeife.png	map_Globus.png	ok
67367	07/07/2021 15:19:40	1	36	45004	763125	1	266	760499	765874	1	267	763199	3	662	organic	correct	766574	1	268	765899	770606	1	269	768599	4	333	770973	1	269	768599	774638	1	271	773999	2	387	organic	correct	775055	1	271	773999	778253	1	272	776698	4	397	778687	1	272	776698	moe_02012.png	moe_Waschbaer.png	moe_Pommes.png	ok
67367	07/07/2021 15:20:01	1	37	45004	783352	1	274	782099	786384	1	275	784798	3	1348	organic	correct	787767	1	276	787499	789833	1	276	787499	4	522	790383	1	277	790199	793848	1	278	792898	2	1544	organic	correct	795414	1	278	792898	798980	1	280	798299	4	536	799546	1	280	798299	foe_08236.png	foe_Tannenzapfen.png	foe_Adler.png	ok
67367	07/07/2021 15:20:20	1	38	45004	803695	1	281	800998	805528	1	282	803699	2	828	inorganic	correct	806377	1	282	803699	810476	1	284	809098	4	628	811126	1	284	809098	814841	1	286	814499	2	976	inorganic	correct	815841	1	286	814499	819040	1	287	817198	4	1445	820522	1	288	819899	fab_06018.png	fab_Staubsauger.png	fab_Kinderwagen.png	ok
67367	07/07/2021 15:20:41	1	39	45004	823338	1	289	822598	826337	1	290	825298	2	1044	inorganic	correct	827404	1	290	825298	830769	1	292	830698	2	267	831086	1	292	830698	834701	1	293	833398	3	2040	inorganic	incorrect	836767	1	294	836099	839683	1	295	838798	2	268	839983	1	295	838798	mai_06530.png	mai_Gewehr.png	mai_Auto.png	ok
67367	07/07/2021 15:21:00	1	40	45004	843865	1	296	841498	845664	1	297	844199	2	358	inorganic	correct	846047	1	297	844199	850046	1	299	849598	2	736	850812	1	299	849598	853728	1	300	852299	3	1443	inorganic	correct	855194	1	301	854998	858493	1	302	857698	2	215	858743	1	302	857698	mak_00987.png	mak_Socken.png	mak_Rucksack.png	ok
67367	07/07/2021 15:21:20	1	41	45004	862892	1	303	860399	864574	1	304	863098	2	658	inorganic	correct	865257	1	304	863098	868073	1	305	865798	4	310	868406	1	305	865798	872988	1	307	871198	2	549	inorganic	correct	873571	1	307	871198	877487	1	309	876598	4	563	878086	1	309	876598	faj_07783.png	faj_Schuh.png	faj_Parfuem.png	ok
67367	07/07/2021 15:21:41	1	42	45004	882851	1	311	881998	886034	1	312	884698	2	497	inorganic	correct	886567	1	312	884698	890466	1	314	890098	4	446	890949	1	314	890098	895364	1	315	892798	2	1340	inorganic	correct	896730	1	316	895498	900862	1	317	898198	4	535	901428	1	318	900898	fac_02146.png	fac_Haarbuerste.png	fac_Ohrring.png	ok
67367	07/07/2021 15:22:03	1	43	45004	904594	1	319	903598	907377	1	320	906298	2	1667	inorganic	correct	909076	1	321	908998	911625	1	321	908998	4	612	912275	1	322	911698	916257	1	323	914397	3	555	inorganic	correct	916840	1	323	914397	921755	1	325	919798	4	703	922488	1	325	919798	fax_14883.png	fax_Fahrrad.png	fax_Klebeband.png	ok
67367	07/07/2021 15:22:24	1	44	45004	926187	1	327	925198	929202	1	328	927898	2	641	organic	incorrect	929886	1	328	927898	933318	1	329	930597	4	506	933851	1	330	933298	937483	1	331	935998	3	2166	organic	incorrect	939682	1	332	938697	941998	1	333	941398	2	962	942998	1	333	941398	mot_69374.png	mot_Bison.png	mot_Hotdog.png	ok
67367	07/07/2021 15:22:45	1	45	45004	946813	1	334	944098	949762	1	336	949498	2	735	inorganic	correct	950529	1	336	949498	953711	1	337	952198	4	944	954677	1	337	952198	958626	1	339	957598	3	383	inorganic	correct	959042	1	339	957598	963441	1	341	962997	4	367	963841	1	341	962997	mau_49693.png	mau_Leiter.png	mau_Wasserventil.png	ok
67367	07/07/2021 15:23:06	1	46	45004	967973	1	342	965698	970189	1	343	968397	2	710	organic	incorrect	970922	1	343	968397	974970	1	345	973798	3	537	975537	1	345	973798	979202	1	346	976497	2	1786	organic	correct	981035	1	347	979197	984767	1	349	984597	3	378	985167	1	349	984597	mos_20953.png	mos_Traube.png	mos_Eintagsfliege.png	ok
67367	07/07/2021 15:23:26	1	47	45004	988966	1	350	987297	991548	1	351	989998	2	208	organic	incorrect	991781	1	351	989998	995497	1	353	995397	2	236	995763	1	353	995397	1000578	1	354	998098	2	1622	organic	correct	1002228	1	355	1000797	1005077	1	356	1003497	2	279	1005393	1	356	1003497	foj_08220.png	foj_Rose.png	foj_Waffel.png	ok
67367	07/07/2021 15:23:47	1	48	45004	1009292	1	358	1008897	1012674	1	359	1011597	2	2360	inorganic	correct	1015057	1	360	1014297	1016906	1	360	1014297	2	1177	1018106	1	361	1016997	1021455	1	362	1019697	2	2440	inorganic	correct	1023920	1	363	1022397	1025503	1	364	1025097	2	772	1026303	1	364	1025097	fap_16329.png	fap_Kissen.png	fap_Knopf.png	ok
67367	07/07/2021 15:24:08	1	49	45004	1029835	1	365	1027798	1033017	1	366	1030497	2	516	inorganic	correct	1033567	1	367	1033197	1037566	1	368	1035897	3	2080	1039682	1	369	1038597	1042381	1	370	1041297	3	1391	inorganic	correct	1043797	1	370	1041297	1047279	1	372	1046697	3	277	1047579	1	372	1046697	mal_20552.png	mal_Kugelschreiber.png	mal_Drucker.png	ok
67367	07/07/2021 15:24:26	1	50	45004	1050995	1	373	1049397	1052977	1	374	1052097	2	1636	inorganic	correct	1054643	1	374	1052097	1057226	1	375	1054797	3	636	1057892	1	376	1057497	1061724	1	377	1060197	2	1943	inorganic	correct	1063690	1	378	1062897	1065740	1	379	1065597	2	1178	1066956	1	379	1065597	fai_07637.png	fai_Kommode.png	fai_Foehn.png	ok
67367	07/07/2021 15:24:48	1	51	45004	1069622	1	380	1068297	1072321	1	381	1070997	2	265	inorganic	correct	1072621	1	381	1070997	1076120	1	382	1073697	4	741	1076903	1	383	1076397	1081201	1	384	1079097	3	627	inorganic	correct	1081851	1	385	1081797	1086399	1	386	1084497	4	987	1087416	1	387	1087197	mas_41937.png	mas_Tisch.png	mas_Bueroklammer.png	ok
67367	07/07/2021 15:25:07	1	52	45004	1091314	1	388	1089897	1094047	1	389	1092597	2	948	inorganic	correct	1095030	1	389	1092597	1097546	1	390	1095297	4	700	1098279	1	391	1097996	1101361	1	392	1100697	3	742	inorganic	correct	1102127	1	392	1100697	1104976	1	393	1103397	4	635	1105643	1	393	1103397	mao_19000.png	mao_Kegel.png	mao_Stempel.png	ok
67367	07/07/2021 15:25:27	1	53	45004	1110241	1	395	1108797	1112457	1	396	1111497	2	2209	organic	incorrect	1114690	1	397	1114196	1117289	1	398	1116897	2	268	1117589	1	398	1116897	1122204	1	399	1119597	3	1693	organic	correct	1123920	1	400	1122296	1125903	1	401	1124997	2	669	1126619	1	401	1124997	foq_17341.png	foq_Fenchel.png	foq_Pinguin.png	ok
67367	07/07/2021 15:25:47	1	54	45004	1129985	1	402	1127697	1132634	1	403	1130396	3	501	organic	correct	1133167	1	404	1133097	1137216	1	405	1135797	4	752	1137999	1	405	1135797	1141398	1	407	1141197	2	601	organic	correct	1142031	1	407	1141197	1145313	1	408	1143896	4	1013	1146362	1	408	1143896	mol_11363.png	mol_Pizza.png	mol_Schimpanse.png	ok
67367	07/07/2021 15:26:07	1	55	45004	1149761	1	410	1149297	1152427	1	411	1151996	3	637	organic	correct	1153094	1	411	1151996	1155926	1	412	1154696	4	634	1156592	1	412	1154696	1160274	1	414	1160096	3	832	organic	correct	1161141	1	414	1160096	1164790	1	415	1162796	4	633	1165456	1	415	1162796	fot_06092.png	fot_Salat.png	fot_Taube.png	ok
67367	07/07/2021 15:26:27	1	56	45004	1169921	1	417	1168196	1172487	1	418	1170896	3	514	organic	correct	1173037	1	418	1170896	1176019	1	419	1173597	4	519	1176586	1	420	1176296	1180268	1	421	1178996	3	572	organic	correct	1180868	1	421	1178996	1185133	1	423	1184396	4	698	1185866	1	423	1184396	fou_18966.png	fou_Schmetterling.png	fou_Feige.png	ok
67367	07/07/2021 15:26:49	1	57	45004	1190014	1	425	1189796	1192597	1	426	1192496	2	655	inorganic	correct	1193280	1	426	1192496	1197712	1	427	1195196	2	436	1198178	1	428	1197896	1201444	1	429	1200596	3	2943	inorganic	incorrect	1204410	1	430	1203296	1206859	1	431	1205996	2	713	1207608	1	431	1205996	fag_06551.png	fag_Geschenk.png	fag_Portemonnaie.png	ok
67367	07/07/2021 15:27:06	1	58	45004	1211707	1	433	1211396	1213523	1	433	1211396	2	2211	inorganic	correct	1215756	1	434	1214096	1218088	1	435	1216796	3	616	1218738	1	435	1216796	1221520	1	436	1219496	3	1040	inorganic	correct	1222587	1	437	1222196	1225286	1	438	1224896	3	244	1225569	1	438	1224896	maw_22459.png	maw_Pingpongschlaeger.png	maw_Schlauchboot.png	ok
67367	07/07/2021 15:27:25	1	59	45004	1229601	1	439	1227596	1231850	1	440	1230296	3	563	organic	correct	1232450	1	440	1230296	1236282	1	442	1235695	4	535	1236849	1	442	1235695	1239831	1	443	1238396	2	653	organic	correct	1240514	1	443	1238396	1243563	1	444	1241096	4	799	1244396	1	445	1243795	moj_11860.png	moj_Walnuss.png	moj_Blatt.png	ok
67367	07/07/2021 15:27:45	1	60	45004	1247912	1	446	1246496	1251344	1	447	1249196	3	1995	organic	correct	1253376	1	448	1251895	1255376	1	449	1254596	3	689	1256092	1	449	1254596	1260574	1	451	1259995	2	932	organic	correct	1261540	1	451	1259995	1264189	1	452	1262696	3	1411	1265639	1	453	1265396	fok_09860.png	fok_Palme.png	fok_Kaenguruh.png	ok
67367	07/07/2021 15:28:06	1	61	45004	1267688	1	453	1265396	1269721	1	454	1268095	3	1255	organic	correct	1271004	1	455	1270796	1274136	1	456	1273496	3	351	1274536	1	456	1273496	1279401	1	458	1278896	3	1459	organic	correct	1280884	1	458	1278896	1284333	1	460	1284295	3	776	1285132	1	460	1284295	for_15880.png	for_Seehund.png	for_Mandel.png	ok
67367	07/07/2021 15:28:26	1	62	45004	1289414	1	461	1286996	1291314	1	462	1289695	2	1230	inorganic	correct	1292580	1	463	1292395	1295629	1	464	1295096	2	235	1295895	1	464	1295096	1300577	1	465	1297795	3	2106	inorganic	correct	1302710	1	465	1297795	1305126	1	466	1303196	2	271	1305425	1	466	1303196	faw_14685.png	faw_Hufeisen.png	faw_Kuechenmaschine.png	ok
67367	07/07/2021 15:28:49	1	63	45004	1308891	1	468	1308595	1312390	1	469	1311296	3	2032	organic	correct	1314456	1	470	1313995	1316039	1	470	1313995	2	1249	1317321	1	471	1316695	1321353	1	472	1319396	2	1358	organic	correct	1322770	1	473	1322095	1326835	1	474	1324795	2	1168	1328035	1	475	1327495	mou_06524.png	mou_Kraehe.png	mou_Croissant.png	ok
67367	07/07/2021 15:29:08	1	64	45004	1331950	1	476	1330195	1334749	1	477	1332895	2	324	organic	incorrect	1335099	1	477	1332895	1338214	1	478	1335595	2	564	1338814	1	479	1338295	1342196	1	480	1340995	2	1486	organic	correct	1343713	1	480	1340995	1346878	1	482	1346395	2	280	1347195	1	482	1346395	foi_05187.png	foi_Apfelkuchen.png	foi_Pflanze.png	ok
67367	07/07/2021 15:29:27	1	65	45004	1350943	1	483	1349095	1352976	1	484	1351795	3	474	organic	correct	1353476	1	484	1351795	1358291	1	486	1357195	4	569	1358891	1	486	1357195	1361806	1	487	1359895	3	1112	organic	correct	1362939	1	488	1362595	1366055	1	489	1365294	4	606	1366688	1	489	1365294	mom_59641.png	mom_Loewe.png	mom_Ei.png	ok
67367	07/07/2021 15:29:48	1	66	45004	1370037	1	490	1367995	1372503	1	491	1370695	2	439	organic	incorrect	1372986	1	491	1370695	1377101	1	493	1376095	2	831	1377968	1	493	1376095	1381217	1	494	1378795	2	1659	organic	correct	1382899	1	495	1381494	1386565	1	496	1384195	2	222	1386815	1	496	1384195	foa_00426.png	foa_Aubergine.png	foa_Marienkaefer.png	ok
67367	07/07/2021 15:30:09	1	67	45004	1391030	1	498	1389594	1393629	1	499	1392295	2	1211	inorganic	correct	1394862	1	499	1392295	1398911	1	501	1397694	4	1201	1400143	1	501	1397694	1403376	1	503	1403095	2	730	inorganic	correct	1404142	1	503	1403095	1408008	1	504	1405794	4	1714	1409757	1	505	1408495	fan_18894.png	fan_Lampe.png	fan_Klavier.png	ok
67367	07/07/2021 15:30:30	1	68	45004	1412289	1	506	1411195	1415355	1	507	1413894	2	1423	organic	incorrect	1416805	1	508	1416595	1419520	1	509	1419294	3	866	1420420	1	509	1419294	1423919	1	510	1421994	2	1550	organic	correct	1425518	1	511	1424695	1429134	1	512	1427394	4	1423	1430583	1	513	1430094	fop_07937.png	fop_Mango.png	fop_Koala.png	ok
67367	07/07/2021 15:30:50	1	69	45004	1433082	1	514	1432795	1436098	1	515	1435494	3	536	organic	correct	1436664	1	515	1435494	1441280	1	517	1440895	4	1671	1442979	1	517	1440895	1444628	1	518	1443594	3	814	organic	correct	1445478	1	518	1443594	1448394	1	519	1446294	4	637	1449060	1	520	1448995	moh_07125.png	moh_Muecke.png	moh_Birne.png	ok
67367	07/07/2021 15:31:14	1	70	45004	1453359	1	521	1451694	1456758	1	522	1454394	2	727	organic	incorrect	1457507	1	523	1457095	1461623	1	524	1459794	2	1041	1462689	1	525	1462494	1466738	1	526	1465194	3	1221	organic	correct	1467987	1	527	1467894	1471686	1	528	1470594	4	866	1472602	1	528	1470594	foc_02664.png	foc_Brombeere.png	foc_Eule.png	ok
67367	07/07/2021 15:31:33	1	71	45004	1476851	1	530	1475994	1479783	1	531	1478694	3	849	inorganic	incorrect	1480666	1	531	1478694	1483165	1	532	1481394	4	773	1483965	1	532	1481394	1488264	1	534	1486794	2	734	inorganic	correct	1489030	1	534	1486794	1492995	1	536	1492194	4	739	1493762	1	536	1492194	mat_23754.png	mat_Feuerzeug.png	mat_Helm.png	ok
67367	07/07/2021 15:31:53	1	72	45004	1496344	1	537	1494894	1498477	1	538	1497594	3	883	organic	correct	1499393	1	538	1497594	1503659	1	540	1502994	4	193	1503875	1	540	1502994	1508374	1	541	1505694	3	1724	organic	correct	1510123	1	542	1508394	1512472	1	543	1511094	4	276	1512772	1	543	1511094	fov_15193.png	fov_Fisch.png	fov_Zucchini.png	ok
67367	07/07/2021 15:32:11	1	73	45004	1516038	1	544	1513794	1517904	1	545	1516494	3	2424	inorganic	incorrect	1520386	1	546	1519194	1522469	1	547	1521894	4	2167	1524668	1	547	1521894	1526151	1	547	1521894	2	657	inorganic	correct	1526834	1	547	1521894	1530133	1	549	1529994	4	1252	1531416	1	549	1529994	mae_36426.png	mae_Taschenrechner.png	mae_Schach.png	ok
67367	07/07/2021 15:32:32	1	74	45004	1533998	1	550	1532694	1537231	1	551	1535394	2	842	organic	incorrect	1538097	1	551	1535394	1542345	1	553	1540794	4	2191	1544561	1	554	1543494	1546244	1	555	1546194	2	1361	organic	correct	1547627	1	555	1546194	1550409	1	556	1548894	3	1112	1551559	1	556	1548894	mog_03277.png	mog_Pilz.png	mog_Fledermaus.png	ok
67367	07/07/2021 15:32:52	1	75	45004	1554875	1	558	1554294	1557957	1	559	1556993	2	1318	organic	incorrect	1559306	1	559	1556993	1561756	1	560	1559693	3	2127	1563922	1	561	1562394	1566737	1	562	1565093	2	1403	organic	correct	1568170	1	563	1567794	1570636	1	564	1570495	2	1343	1572019	1	564	1570495	mon_69587.png	mon_Kartoffel.png	mon_Fuchs.png	ok
67367	07/07/2021 15:33:14	1	76	45004	1575184	1	565	1573193	1577800	1	566	1575894	3	2162	organic	correct	1579999	1	567	1578594	1583082	1	568	1581293	2	301	1583415	1	568	1581293	1588030	1	570	1586694	2	2144	organic	correct	1590196	1	571	1589393	1592329	1	572	1592094	0	0	1592329	1	573	1594793	mof_06901.png	mof_Hahn.png	mof_Spaghetti.png	ok
67367	07/07/2021 15:33:34	1	77	45004	1597494	1	573	1594793	1599659	1	574	1597493	2	1646	organic	incorrect	1601342	1	575	1600194	1604075	1	576	1602893	2	484	1604591	1	576	1602893	1607873	1	577	1605593	2	1642	organic	correct	1609539	1	578	1608294	1613238	1	579	1610993	2	272	1613538	1	579	1610993	mob_22833.png	mob_Kiwi.png	mob_Igel.png	ok
67367	07/07/2021 15:33:52	1	78	45004	1617553	1	581	1616394	1619236	1	582	1619093	2	1105	inorganic	correct	1620386	1	582	1619093	1623485	1	583	1621793	2	210	1623718	1	583	1621793	1627067	1	584	1624494	2	1503	inorganic	incorrect	1628600	1	585	1627193	1631066	1	586	1629893	2	618	1631715	1	586	1629893	fal_07977.png	fal_Korb.png	fal_Buegeleisen.png	ok
67367	07/07/2021 15:34:10	1	79	45004	1634898	1	587	1632594	1637313	1	588	1635293	3	1922	inorganic	incorrect	1639263	1	589	1637993	1640729	1	590	1640693	2	821	1641579	1	590	1640693	1644694	1	591	1643393	3	1459	inorganic	correct	1646177	1	592	1646093	1649259	1	593	1648793	2	346	1649643	1	593	1648793	fat_14140.png	fat_Einkaufswagen.png	fat_Kleiderbuegel.png	ok
67367	07/07/2021 15:34:32	1	80	45004	1653058	1	594	1651493	1656007	1	595	1654193	2	461	inorganic	correct	1656490	1	595	1654193	1660905	1	597	1659593	4	893	1661822	1	597	1659593	1665837	1	599	1664993	2	1043	inorganic	correct	1666903	1	599	1664993	1670752	1	601	1670393	2	840	1671635	1	601	1670393	maj_01546.png	maj_Computermaus.png	maj_Krawatte.png	ok
67367	07/07/2021 15:34:52	1	81	45004	1674917	1	602	1673093	1677267	1	603	1675793	2	904	inorganic	correct	1678200	1	603	1675793	1681065	1	604	1678493	4	533	1681632	1	605	1681193	1686264	1	606	1683893	2	1185	inorganic	correct	1687480	1	607	1686593	1691395	1	608	1689293	2	1582	1693011	1	609	1691993	far_06518.png	far_Giesskanne.png	far_Heissluftballon.png	ok
67367	07/07/2021 15:35:11	1	82	45004	1694744	1	610	1694692	1696910	1	610	1694692	3	623	organic	correct	1697560	1	611	1697393	1700409	1	612	1700093	4	550	1700992	1	612	1700093	1704541	1	613	1702792	2	675	organic	correct	1705241	1	613	1702792	1709939	1	615	1708193	4	1061	1711039	1	616	1710892	moe_23630.png	moe_Pommes.png	moe_Waschbaer.png	ok
67367	07/07/2021 15:35:31	1	83	45004	1714354	1	617	1713593	1716420	1	618	1716294	2	2050	inorganic	correct	1718519	1	618	1716294	1721135	1	619	1718992	2	1956	1723118	1	620	1721693	1724901	1	621	1724393	3	1160	inorganic	correct	1726083	1	621	1724393	1729349	1	622	1727092	3	570	1729949	1	623	1729793	mac_59752.png	mac_Medaille.png	mac_Dartpfeil.png	ok
67367	07/07/2021 15:35:53	1	84	45004	1733897	1	624	1732493	1736630	1	625	1735192	2	501	inorganic	correct	1737163	1	625	1735192	1741445	1	627	1740592	4	1392	1742861	1	627	1740592	1746693	1	629	1745993	2	627	inorganic	correct	1747343	1	629	1745993	1751741	1	631	1751393	4	1087	1752858	1	631	1751393	map_49576.png	map_Globus.png	map_Pfeife.png	ok
67367	07/07/2021 15:36:13	1	85	45004	1756473	1	632	1754093	1758656	1	633	1756792	2	1050	inorganic	correct	1759739	1	634	1759492	1762321	1	635	1762194	2	1057	1763404	1	635	1762194	1767519	2	636	1764893	3	1655	inorganic	incorrect	1769219	1	637	1767593	1771668	1	638	1770294	3	658	1772351	1	638	1770294	fab_06286.png	fab_Kinderwagen.png	fab_Staubsauger.png	ok
67367	07/07/2021 15:36:32	1	86	45004	1776117	1	640	1775693	1778499	1	641	1778392	2	601	organic	incorrect	1779132	1	641	1778392	1781998	1	642	1781092	4	788	1782814	1	642	1781092	1787030	1	644	1786492	3	2859	organic	correct	1789912	1	645	1789193	1791295	1	645	1789193	2	366	1791695	1	645	1789193	foe_08514.png	foe_Adler.png	foe_Tannenzapfen.png	ok
67367	07/07/2021 15:36:52	1	87	45004	1795077	1	647	1794592	1798242	1	648	1797292	2	490	inorganic	correct	1798759	1	648	1797292	1803307	1	650	1802693	4	307	1803641	1	650	1802693	1806989	1	651	1805392	2	543	inorganic	correct	1807556	1	651	1805392	1811438	1	653	1810793	4	1010	1812471	1	653	1810793	mai_23761.png	mai_Auto.png	mai_Gewehr.png	ok
67367	07/07/2021 15:37:13	1	88	45004	1815203	1	654	1813492	1818619	1	655	1816192	2	2253	inorganic	correct	1820901	1	656	1818892	1823850	1	657	1821592	4	370	1824250	1	657	1821592	1828432	1	659	1826992	3	383	inorganic	correct	1828849	1	659	1826992	1832448	1	661	1832392	4	244	1832731	1	661	1832392	mak_03979.png	mak_Rucksack.png	mak_Socken.png	ok
67367	07/07/2021 15:37:32	1	89	45004	1836330	1	662	1835093	1838046	1	663	1837793	2	2408	inorganic	correct	1840478	1	663	1837793	1842261	1	664	1840492	3	1344	1843627	1	665	1843193	1846876	1	666	1845893	3	1992	inorganic	correct	1848892	1	667	1848592	1850808	1	667	1848592	2	2053	1852891	1	668	1851293	faj_07849.png	faj_Parfuem.png	faj_Schuh.png	ok
67367	07/07/2021 15:37:52	1	90	45004	1854857	1	669	1853993	1856706	1	669	1853993	2	1715	inorganic	correct	1858455	1	670	1856692	1861788	1	671	1859393	2	256	1862071	1	671	1859393	1866869	1	673	1864792	3	1757	inorganic	correct	1868669	1	674	1867493	1871884	1	675	1870193	3	273	1872184	1	675	1870193	fac_02970.png	fac_Ohrring.png	fac_Haarbuerste.png	ok
67367	07/07/2021 15:38:11	1	91	45004	1875216	1	676	1872892	1877832	1	677	1875593	2	1022	inorganic	correct	1878882	1	678	1878292	1881698	1	679	1880992	2	1939	1883664	1	679	1880992	1885263	1	680	1883693	3	1412	inorganic	correct	1886696	1	681	1886392	1890128	1	682	1889092	2	1207	1891361	1	682	1889092	fax_15310.png	fax_Klebeband.png	fax_Fahrrad.png	ok
67367	07/07/2021 15:38:32	1	92	45004	1894143	1	683	1891793	1895810	1	684	1894492	2	1565	organic	incorrect	1897409	1	685	1897192	1900991	1	686	1899893	2	1363	1902391	1	686	1899893	1905873	1	688	1905292	3	2156	organic	correct	1908055	1	689	1907993	1909871	1	689	1907993	2	556	1910455	1	689	1907993	mot_69770.png	mot_Hotdog.png	mot_Bison.png	ok
67367	07/07/2021 15:38:51	1	93	45004	1914870	1	691	1913392	1917785	1	692	1916092	3	1342	organic	correct	1919168	1	693	1918792	1922034	1	694	1921492	2	1721	1923783	1	694	1921492	1926149	1	695	1924192	2	2399	organic	correct	1928582	1	696	1926892	1929898	1	697	1929592	3	1558	1931481	1	697	1929592	foj_08937.png	foj_Waffel.png	foj_Rose.png	ok
67367	07/07/2021 15:39:10	1	94	45004	1934446	1	698	1932292	1936446	1	699	1934992	2	735	inorganic	correct	1937212	1	699	1934992	1940661	1	701	1940392	4	776	1941461	1	701	1940392	1944093	1	702	1943092	3	925	inorganic	correct	1945043	1	702	1943092	1948075	1	703	1945792	4	1899	1950008	1	704	1948492	fap_17119.png	fap_Knopf.png	fap_Kissen.png	ok
67367	07/07/2021 15:39:31	1	95	45004	1953407	1	705	1951192	1955273	1	706	1953892	2	1371	inorganic	correct	1956672	1	707	1956592	1958705	1	707	1956592	2	916	1959655	1	708	1959292	1964053	1	709	1961991	3	1156	inorganic	correct	1965253	1	710	1964692	1968752	1	711	1967392	4	328	1969101	1	711	1967392	mau_58144.png	mau_Wasserventil.png	mau_Leiter.png	ok
67367	07/07/2021 15:39:51	1	96	45004	1973667	1	713	1972792	1975416	1	713	1972792	2	1147	organic	incorrect	1976599	1	714	1975492	1979764	1	715	1978192	2	276	1980064	1	715	1978192	1984779	1	717	1983592	3	1269	organic	correct	1986079	1	717	1983592	1989928	1	719	1988992	3	1637	1991594	1	719	1988992	mos_23223.png	mos_Eintagsfliege.png	mos_Traube.png	ok
