ID	DateTime	Run	Delayed_Retrieval_Trial	First_Pulse_Time	FaceRecog_OnsetTime	FaceRecog_OnsetTimeUncertainty	FaceRecog_fMRI_Pulse	FaceRecog_fMRI_PulseTime	Assoc_Retrieval_OnsetTime	Assoc_Retrieval_OnsetTimeUncertainty	Assoc_Retrieval_fMRI_Pulse	Assoc_Retrieval_fMRI_PulseTime	Assoc_Retrieval_Pressed_Button	Assoc_Retrieval_RT	Assoc_Retrieval_Response_Category	Assoc_Retrieval_Accuracy	Assoc_Retrieval_Feedback_OnsetTime	Assoc_Retrieval_Feedback_OnsetTimeUncertainty	Assoc_Retrieval_Feedback_fMRI_Pulse	Assoc_Retrieval_Feedback_fMRI_PulseTime	Retrieval_consc_Rating_OnsetTime	Retrieval_consc_Rating_OnsetTimeUncertainty	Retrieval_consc_Rating_fMRI_Pulse	Retrieval_consc_Rating_fMRI_PulseTime	Retrieval_consc_Rating_Pressed_Button	Retrieval_consc_Rating_RT	Retrieval_consc_Rating_Feedback_OnsetTime	Retrieval_consc_Rating_Feedback_OnsetTimeUncertainty	Retrieval_consc_Rating_Feedback_fMRI_Pulse	Retrieval_consc_Rating_Feedback_fMRI_PulseTime	ForcedChoice_OnsetTime	ForcedChoice_OnsetTimeUncertainty	ForcedChoice_fMRI_Pulse	ForcedChoice_fMRI_PulseTime	ForcedChoice_Pressed_Button	ForcedChoice_RT	ForcedChoice_Response_Category	ForcedChoice_Accuracy	ForcedChoice_Feedback_OnsetTime	ForcedChoice_Feedback_OnsetTimeUncertainty	ForcedChoice_Feedback_fMRI_Pulse	ForcedChoice_Feedback_fMRI_PulseTime	Recognition_consc_Rating_OnsetTime	Recognition_consc_Rating_OnsetTimeUncertainty	Recognition_consc_Rating_fMRI_Pulse	Recognition_consc_Rating_fMRI_PulseTime	Recognition_consc_Rating_Pressed_Button	Recognition_consc_Rating_RT	Recognition_consc_Rating_Feedback_OnsetTime	Recognition_consc_Rating_Feedback_OnsetTimeUncertainty	Recognition_consc_Rating_Feedback_fMRI_Pulse	Recognition_consc_Rating_Feedback_fMRI_PulseTime	Presented_Person	Presented_Target	Presented_Lure	TrialStatus
67400	08/25/2021 15:16:13	1	1	107310	117676	1	5	115789	120792	1	7	120030	0	0	inorganic	miss	120792	1	8	122150	125507	1	9	124269	2	551	126090	1	9	124269	130122	1	11	128510	3	2199	inorganic	incorrect	132355	1	12	130629	134820	1	13	132749	3	603	135454	1	14	134869	faj_07783.png	faj_Schuh.png	faj_Parfuem.png	ok
67400	08/25/2021 15:16:36	1	2	107310	138719	1	15	136990	142051	1	17	141229	2	668	organic	incorrect	142751	1	17	141229	147266	1	19	145470	3	1821	149116	1	20	147589	151382	1	21	149709	2	1336	organic	correct	152748	1	22	151830	156680	1	24	156069	4	248	156963	1	24	156069	foe_08236.png	foe_Tannenzapfen.png	foe_Adler.png	ok
67400	08/25/2021 15:16:57	1	3	107310	161561	1	26	160310	163278	1	27	162429	2	533	organic	incorrect	163844	1	27	162429	167126	1	29	166669	2	1385	168542	1	29	166669	172125	1	31	170909	3	2545	organic	correct	174707	1	32	173029	177323	1	34	177269	3	1119	178472	1	34	177269	mos_20953.png	mos_Traube.png	mos_Eintagsfliege.png	ok
67400	08/25/2021 15:17:17	1	4	107310	182171	1	36	181509	184137	1	37	183629	2	837	organic	incorrect	185004	1	37	183629	189319	1	39	187869	2	1041	190385	1	40	189989	193151	1	41	192109	2	1979	organic	correct	195150	1	42	194229	197916	1	43	196349	4	277	198216	1	43	196349	fov_15046.png	fov_Fisch.png	fov_Zucchini.png	ok
67400	08/25/2021 15:17:40	1	5	107310	202997	1	46	202709	205796	1	47	204829	3	538	organic	correct	206363	1	47	204829	210928	1	49	209069	4	365	211328	1	50	211189	215960	1	52	215428	3	1009	organic	correct	216993	1	52	215428	220925	1	54	219669	4	451	221425	1	54	219669	foi_03389.png	foi_Apfelkuchen.png	foi_Pflanze.png	ok
67400	08/25/2021 15:18:00	1	6	107310	225390	1	56	223908	228072	1	57	226029	2	236	organic	incorrect	228339	1	58	228149	231438	1	59	230268	3	361	231821	1	59	230268	236569	1	61	234509	2	1447	organic	correct	238052	1	62	236629	240885	1	63	238748	4	980	241901	1	64	240869	foj_08220.png	foj_Rose.png	foj_Waffel.png	ok
67400	08/25/2021 15:18:21	1	7	107310	245800	1	66	245109	248149	1	67	247228	2	998	inorganic	correct	249182	1	67	247228	252597	1	69	251469	4	229	252864	1	69	251469	256229	1	71	255708	2	554	inorganic	correct	256813	1	71	255708	261361	1	73	259949	4	359	261744	1	73	259949	fan_17286.png	fan_Klavier.png	fan_Lampe.png	ok
67400	08/25/2021 15:18:41	1	8	107310	266643	1	76	266309	269542	1	77	268428	2	1096	organic	incorrect	270691	1	78	270548	274773	1	79	272669	3	297	275106	1	80	274789	278355	1	81	276908	2	1581	organic	correct	279971	1	82	279028	283537	1	84	283268	4	290	283853	1	84	283268	moe_02012.png	moe_Waschbaer.png	moe_Pommes.png	ok
67400	08/25/2021 15:19:01	1	9	107310	286952	1	85	285388	289135	1	86	287508	2	696	inorganic	correct	289868	1	87	289629	294000	1	89	293868	2	257	294283	1	89	293868	297882	1	90	295988	3	2053	inorganic	correct	299965	1	91	298109	303197	1	93	302348	4	495	303713	1	93	302348	mae_01010.png	mae_Schach.png	mae_Taschenrechner.png	ok
67400	08/25/2021 15:19:20	1	10	107310	306962	1	94	306588	309045	1	95	308708	2	1376	inorganic	correct	310444	1	95	308708	312727	1	96	310828	2	1350	314110	1	97	312949	317225	1	99	317188	2	1555	inorganic	correct	318825	1	99	317188	321041	1	100	319308	4	814	321907	1	101	321429	mak_00987.png	mak_Rucksack.png	mak_Socken.png	ok
67400	08/25/2021 15:19:40	1	11	107310	325756	1	103	325668	328072	1	104	327788	3	1239	inorganic	incorrect	329338	1	104	327788	331770	1	105	329908	3	724	332520	1	106	332028	335886	1	107	334148	3	1176	inorganic	correct	337085	1	108	336268	340701	1	110	340508	4	1222	341950	1	110	340508	map_41499.png	map_Pfeife.png	map_Globus.png	ok
67400	08/25/2021 15:20:00	1	12	107310	345099	1	112	344748	348048	1	113	346868	2	925	organic	incorrect	348998	1	113	346868	351980	1	115	351108	4	284	352297	1	115	351108	357262	1	117	355348	3	2164	organic	correct	359461	1	118	357468	361427	1	119	359587	4	388	361844	1	120	361708	mom_59361.png	mom_Ei.png	mom_Loewe.png	ok
67400	08/25/2021 15:20:18	1	13	107310	365392	1	121	363828	367758	1	122	365948	2	1780	organic	incorrect	369591	1	123	368067	371357	1	124	370188	2	1025	372423	1	125	372308	375489	1	126	374428	2	568	organic	correct	376089	1	126	374428	380571	1	128	378668	4	256	380854	1	129	380788	mot_69374.png	mot_Bison.png	mot_Hotdog.png	ok
67400	08/25/2021 15:20:39	1	14	107310	383920	1	130	382907	386852	1	131	385028	2	247	inorganic	correct	387135	1	131	385028	390367	1	133	389268	4	287	390684	1	133	389268	395332	1	135	393508	2	578	inorganic	correct	395932	1	136	395628	399714	1	137	397748	4	251	399997	1	138	399867	fap_16329.png	fap_Knopf.png	fap_Kissen.png	ok
67400	08/25/2021 15:21:00	1	15	107310	404646	1	140	404108	406595	1	141	406227	2	688	organic	incorrect	407312	1	141	406227	411277	1	143	410468	2	245	411560	1	143	410468	414792	1	145	414707	3	1827	organic	correct	416642	1	145	414707	420091	1	147	418948	4	260	420390	1	147	418948	for_15187.png	for_Seehund.png	for_Mandel.png	ok
67400	08/25/2021 15:21:20	1	16	107310	425172	1	149	423187	427205	1	150	425308	2	1184	organic	incorrect	428421	1	151	427428	431770	1	153	431667	2	993	432786	1	153	431667	436868	1	155	435908	2	1959	organic	correct	438851	1	156	438027	441933	1	157	440147	4	232	442200	1	157	440147	mon_65798.png	mon_Kartoffel.png	mon_Fuchs.png	ok
67400	08/25/2021 15:21:41	1	17	107310	445382	1	159	444387	448431	1	160	446507	2	268	inorganic	correct	448731	1	161	448627	452513	1	162	450748	4	243	452780	1	162	450748	457461	1	165	457107	2	447	inorganic	correct	457944	1	165	457107	462393	1	167	461347	4	215	462643	1	167	461347	fax_14883.png	fax_Klebeband.png	fax_Fahrrad.png	ok
67400	08/25/2021 15:22:00	1	18	107310	466442	1	169	465588	468791	1	170	467707	2	264	inorganic	correct	469107	1	170	467707	473273	1	172	471947	4	225	473522	1	172	471947	477005	1	174	476187	2	596	inorganic	correct	477621	1	174	476187	481070	1	176	480427	4	926	482020	1	176	480427	maj_01545.png	maj_Computermaus.png	maj_Krawatte.png	ok
67400	08/25/2021 15:22:18	1	19	107310	485518	1	178	484667	488268	1	179	486787	2	607	inorganic	correct	488901	1	179	486787	492000	1	181	491027	3	358	492383	1	181	491027	495932	1	183	495267	2	783	inorganic	correct	496748	1	183	495267	499747	1	185	499507	4	196	499980	1	185	499507	fai_07494.png	fai_Foehn.png	fai_Kommode.png	ok
67400	08/25/2021 15:22:37	1	20	107310	503412	1	186	501627	505795	1	187	503747	2	836	inorganic	correct	506661	1	188	505867	509894	1	189	507987	2	217	510143	1	190	510107	513676	1	191	512227	2	1729	inorganic	correct	515425	1	192	514347	517724	1	193	516467	3	306	518074	1	193	516467	maw_04767.png	maw_Schlauchboot.png	maw_Pingpongschlaeger.png	ok
67400	08/25/2021 15:22:57	1	21	107310	522039	1	195	520706	524572	1	196	522827	3	196	organic	correct	524805	1	196	522827	529454	1	199	529186	4	327	529803	1	199	529186	533969	1	201	533427	3	753	organic	correct	534752	1	201	533427	537651	1	202	535546	4	383	538067	1	203	537667	moh_06446.png	moh_Muecke.png	moh_Birne.png	ok
67400	08/25/2021 15:23:15	1	22	107310	542516	1	205	541907	544249	1	206	544026	2	1358	organic	incorrect	545631	1	206	544026	548464	1	208	548267	3	81	548580	1	208	548267	552946	1	210	552506	3	2140	organic	incorrect	555112	1	211	554627	557511	1	212	556747	3	1338	558877	1	212	556747	mol_07679.png	mol_Pizza.png	mol_Schimpanse.png	ok
67400	08/25/2021 15:23:37	1	23	107310	560910	1	213	558866	563859	1	215	563107	2	1108	inorganic	correct	565008	1	215	563107	568757	1	217	567346	2	279	569090	1	217	567346	572922	1	219	571587	3	2186	inorganic	correct	575138	1	220	573706	577987	1	222	577946	3	1319	579337	1	222	577946	faw_14215.png	faw_Hufeisen.png	faw_Kuechenmaschine.png	ok
67400	08/25/2021 15:23:59	1	24	107310	582052	1	223	580067	584918	1	225	584306	2	503	inorganic	correct	585451	1	225	584306	590250	1	227	588547	2	1340	591616	1	228	590666	595181	1	230	594907	3	1572	inorganic	correct	596781	1	230	594907	599830	1	232	599146	4	311	600180	1	232	599146	fab_06018.png	fab_Kinderwagen.png	fab_Staubsauger.png	ok
67400	08/25/2021 15:24:18	1	25	107310	604045	1	234	603387	606677	1	235	605506	3	228	organic	correct	606927	1	235	605506	611592	1	237	609746	4	244	611859	1	237	609746	615208	1	239	613986	3	646	organic	correct	615891	1	239	613986	619107	1	241	618227	4	354	619490	1	241	618227	mof_02408.png	mof_Spaghetti.png	mof_Hahn.png	ok
67400	08/25/2021 15:24:38	1	26	107310	623072	1	243	622466	624871	1	244	624586	2	540	inorganic	correct	625438	1	244	624586	629570	1	246	628826	2	330	629936	1	246	628826	633052	1	247	630946	3	1699	inorganic	correct	634785	1	248	633066	638217	1	250	637306	2	242	638483	1	250	637306	fat_12032.png	fat_Kleiderbuegel.png	fat_Einkaufswagen.png	ok
67400	08/25/2021 15:24:58	1	27	107310	643115	1	252	641546	646381	1	254	645786	3	225	organic	correct	646631	1	254	645786	650046	1	255	647906	4	303	650379	1	256	650025	653795	1	257	652146	3	934	organic	correct	654761	1	258	654266	658593	1	260	658506	4	353	658976	1	260	658506	moj_11821.png	moj_Blatt.png	moj_Walnuss.png	ok
67400	08/25/2021 15:25:15	1	28	107310	663908	1	262	662746	666057	1	263	664866	2	1076	organic	incorrect	667174	1	264	666986	669506	1	265	669106	2	710	670239	1	265	669106	672955	1	266	671226	2	1622	organic	correct	674604	1	267	673345	676737	1	268	675466	4	226	676987	1	268	675466	foc_02157.png	foc_Brombeere.png	foc_Eule.png	ok
67400	08/25/2021 15:25:34	1	29	107310	680919	1	270	679706	682718	1	271	681825	2	494	inorganic	correct	683235	1	271	681825	686384	1	273	686066	4	199	686617	1	273	686066	690232	1	274	688185	3	767	inorganic	correct	691032	1	275	690305	694314	1	276	692426	4	296	694648	1	277	694546	mai_06530.png	mai_Auto.png	mai_Gewehr.png	ok
67400	08/25/2021 15:25:54	1	30	107310	699096	1	279	698786	701629	1	280	700906	2	662	organic	incorrect	702312	1	280	700906	705761	1	282	705145	2	1143	706927	1	282	705145	710109	1	284	709386	3	1275	organic	correct	711409	1	284	709386	714674	1	286	713625	4	613	715341	1	286	713625	foq_16799.png	foq_Fenchel.png	foq_Pinguin.png	ok
67400	08/25/2021 15:26:15	1	31	107310	719573	1	288	717866	721922	1	289	719985	2	825	inorganic	correct	722771	1	290	722105	726270	1	291	724226	2	289	726587	1	292	726345	730136	1	293	728465	2	989	inorganic	correct	731152	1	294	730585	735301	1	296	734825	4	211	735534	1	296	734825	mal_04470.png	mal_Drucker.png	mal_Kugelschreiber.png	ok
67400	08/25/2021 15:26:35	1	32	107310	740066	1	298	739066	741782	1	299	741186	3	636	inorganic	incorrect	742448	1	299	741186	746880	1	301	745425	3	372	747280	1	301	745425	750729	1	303	749665	0	0	inorganic	miss	750729	1	304	751785	755560	1	305	753905	4	455	756044	1	305	753905	far_00736.png	far_Heissluftballon.png	far_Giesskanne.png	ok
67400	08/25/2021 15:26:54	1	33	107310	760092	1	307	758145	762525	1	309	762385	2	360	inorganic	correct	762925	1	309	762385	766773	1	311	766625	4	928	767740	1	311	766625	771305	1	313	770865	3	760	inorganic	correct	772088	1	313	770865	775837	1	315	775105	4	505	776370	1	315	775105	mau_49693.png	mau_Leiter.png	mau_Wasserventil.png	ok
67400	08/25/2021 15:27:13	1	34	107310	779569	1	317	779346	781552	1	318	781465	2	1251	organic	incorrect	782834	1	318	781465	785534	1	319	783585	3	973	786533	1	320	785705	789382	1	321	787825	3	1603	organic	correct	791015	1	322	789945	794414	1	324	794185	4	308	794747	1	324	794185	fot_00797.png	fot_Salat.png	fot_Taube.png	ok
67400	08/25/2021 15:27:33	1	35	107310	798929	1	326	798425	801345	1	327	800545	2	1325	organic	incorrect	802694	1	328	802664	804994	1	329	804785	2	1148	806177	1	329	804785	808742	1	330	806905	2	919	organic	incorrect	809692	1	331	809025	814091	1	333	813265	2	1092	815223	1	333	813265	mou_01862.png	mou_Kraehe.png	mou_Croissant.png	ok
67400	08/25/2021 15:27:52	1	36	107310	818156	1	335	817505	820555	1	336	819625	2	899	inorganic	correct	821488	1	336	819625	823954	1	338	823865	2	1403	825387	1	338	823865	828919	1	340	828105	3	2243	inorganic	incorrect	831185	1	341	830225	834400	1	342	832345	2	255	834684	1	343	834464	mao_11634.png	mao_Stempel.png	mao_Kegel.png	ok
67400	08/25/2021 15:28:10	1	37	107310	838016	1	344	836585	839882	1	345	838705	2	1165	inorganic	correct	841081	1	346	840824	843514	1	347	842944	4	438	843980	1	347	842944	847696	1	349	847185	2	645	inorganic	correct	848362	1	349	847185	851478	1	351	851424	4	321	851828	1	351	851424	mac_59169.png	mac_Medaille.png	mac_Dartpfeil.png	ok
67400	08/25/2021 15:28:31	1	38	107310	855177	1	352	853545	857709	1	353	855665	2	310	organic	incorrect	858042	1	354	857784	862724	1	356	862025	2	1023	863790	1	356	862025	867123	1	358	866264	3	1976	organic	correct	869122	1	359	868385	871788	1	360	870505	3	177	871988	1	360	870505	foa_00207.png	foa_Aubergine.png	foa_Marienkaefer.png	ok
67400	08/25/2021 15:28:49	1	39	107310	877003	1	363	876865	879252	1	364	878984	3	436	organic	correct	879718	1	364	878984	883434	1	366	883224	4	240	883700	1	366	883224	886916	1	367	885345	2	545	organic	correct	887482	1	367	885345	891081	1	369	889584	4	304	891414	1	369	889584	fok_09378.png	fok_Palme.png	fok_Kaenguruh.png	ok
67400	08/25/2021 15:29:09	1	40	107310	894630	1	371	893825	897929	1	372	895944	2	250	inorganic	correct	898212	1	373	898064	901644	1	374	900185	4	226	901894	1	374	900185	905493	1	376	904424	3	536	inorganic	correct	906059	1	376	904424	910791	1	378	908665	4	214	911058	1	379	910784	fac_02146.png	fac_Ohrring.png	fac_Haarbuerste.png	ok
67400	08/25/2021 15:29:30	1	41	107310	914940	1	380	912904	918155	1	382	917144	2	628	inorganic	correct	918805	1	382	917144	922237	1	384	921384	4	724	922987	1	384	921384	925769	1	386	925624	3	535	inorganic	correct	926336	1	386	925624	931268	1	388	929864	4	158	931451	1	388	929864	fag_06539.png	fag_Portemonnaie.png	fag_Geschenk.png	ok
67400	08/25/2021 15:29:50	1	42	107310	935433	1	390	934104	937082	1	391	936224	2	1622	inorganic	correct	938732	1	392	938344	941347	1	393	940464	2	401	941781	1	393	940464	946562	1	395	944704	3	1065	inorganic	correct	947662	1	396	946824	951111	1	398	951064	4	242	951377	1	398	951064	mas_41366.png	mas_Bueroklammer.png	mas_Tisch.png	ok
67400	08/25/2021 15:30:09	1	43	107310	955143	1	399	953184	957342	1	400	955303	2	825	organic	incorrect	958192	1	401	957424	962690	1	403	961664	2	227	962957	1	403	961664	967622	1	405	965904	3	1791	organic	correct	969438	1	406	968024	971237	1	407	970144	4	357	971621	1	407	970144	mog_03090.png	mog_Fledermaus.png	mog_Pilz.png	ok
67400	08/25/2021 15:30:27	1	44	107310	974636	1	409	974384	976935	1	410	976504	2	1169	inorganic	correct	978135	1	410	976504	981867	1	412	980744	2	261	982150	1	412	980744	985532	1	414	984984	3	1389	inorganic	correct	986949	1	414	984984	989131	1	415	987103	3	351	989514	1	416	989224	fal_07906.png	fal_Buegeleisen.png	fal_Korb.png	ok
67400	08/25/2021 15:30:50	1	45	107310	992963	1	417	991344	996096	1	419	995583	2	1186	inorganic	correct	997312	1	419	995583	1000677	1	421	999824	4	258	1000961	1	421	999824	1004759	1	423	1004063	3	330	inorganic	correct	1005109	1	423	1004063	1009958	1	425	1008304	4	216	1010224	1	425	1008304	mat_23275.png	mat_Helm.png	mat_Feuerzeug.png	ok
67400	08/25/2021 15:31:08	1	46	107310	1015122	1	428	1014664	1017638	1	429	1016783	2	658	organic	incorrect	1018321	1	429	1016783	1021904	1	431	1021024	2	237	1022170	1	431	1021024	1026785	1	433	1025263	2	2665	organic	correct	1029484	1	434	1027383	1030401	1	435	1029504	3	1099	1031534	1	435	1029504	fop_00621.png	fop_Mango.png	fop_Koala.png	ok
67400	08/25/2021 15:31:29	1	47	107310	1033750	1	436	1031624	1036699	1	438	1035863	2	280	organic	incorrect	1037015	1	438	1035863	1040980	1	440	1040103	2	239	1041247	1	440	1040103	1045096	1	442	1044344	3	1277	organic	correct	1046395	1	442	1044344	1050344	1	444	1048582	4	279	1050660	1	444	1048582	mob_00760.png	mob_Kiwi.png	mob_Igel.png	ok
67400	08/25/2021 15:31:48	1	48	107310	1054692	1	446	1052823	1056525	1	447	1054943	2	1920	organic	incorrect	1058491	1	448	1057063	1061107	1	449	1059182	2	428	1061573	1	450	1061304	1065222	1	451	1063422	2	951	organic	correct	1066205	1	452	1065542	1069737	1	453	1067662	4	135	1069904	1	454	1069783	fou_17118.png	fou_Schmetterling.png	fou_Feige.png	ok
67400	08/25/2021 15:32:07	1	49	107310	1073569	1	455	1071903	1076052	1	456	1074023	2	1257	inorganic	correct	1077335	1	457	1076142	1079734	1	458	1078262	2	1099	1080867	1	459	1080382	1084299	1	460	1082502	2	2103	inorganic	correct	1086432	1	461	1084622	1088381	1	462	1086742	4	338	1088748	1	462	1086742	faj_07849.png	faj_Parfuem.png	faj_Schuh.png	ok
67400	08/25/2021 15:32:24	1	50	107310	1092063	1	464	1090982	1093713	1	465	1093102	2	2321	organic	incorrect	1096062	1	466	1095223	1098794	1	467	1097342	2	1086	1099910	1	468	1099462	1102343	1	469	1101582	3	1559	organic	correct	1103926	1	470	1103702	1106258	1	471	1105822	2	907	1107191	1	471	1105822	mos_23223.png	mos_Eintagsfliege.png	mos_Traube.png	ok
67400	08/25/2021 15:32:45	1	51	107310	1109824	1	472	1107941	1112523	1	474	1112183	3	283	organic	correct	1112839	1	474	1112183	1117055	1	476	1116422	4	247	1117338	1	476	1116422	1121953	1	478	1120662	3	710	organic	correct	1122686	1	478	1120662	1126368	1	480	1124902	4	596	1127001	1	480	1124902	fov_15193.png	fov_Zucchini.png	fov_Fisch.png	ok
67400	08/25/2021 15:33:06	1	52	107310	1130983	1	482	1129142	1132616	1	482	1129142	3	538	organic	correct	1133183	1	482	1129142	1137248	1	484	1135502	4	208	1137481	1	484	1135502	1141963	1	487	1141862	2	449	organic	correct	1142446	1	487	1141862	1146895	1	489	1146102	4	335	1147261	1	489	1146102	foe_08514.png	foe_Adler.png	foe_Tannenzapfen.png	ok
67400	08/25/2021 15:33:28	1	53	107310	1151843	1	491	1150342	1155092	1	493	1154582	3	1287	organic	correct	1156408	1	493	1154582	1159707	1	495	1158822	3	654	1160407	1	495	1158822	1164805	1	497	1163061	3	1837	organic	correct	1166671	1	498	1165181	1169037	1	499	1167302	4	471	1169537	1	500	1169421	foj_08937.png	foj_Waffel.png	foj_Rose.png	ok
67400	08/25/2021 15:33:49	1	54	107310	1173569	1	501	1171542	1177118	1	503	1175782	3	1580	organic	correct	1178734	1	504	1177901	1181716	1	505	1180021	2	497	1182249	1	506	1182142	1186748	1	508	1186381	2	1573	organic	correct	1188347	1	508	1186381	1191080	1	510	1190622	4	860	1191963	1	510	1190622	foi_05187.png	foi_Pflanze.png	foi_Apfelkuchen.png	ok
67400	08/25/2021 15:34:11	1	55	107310	1194928	1	512	1194861	1198294	1	513	1196981	3	1486	organic	correct	1199810	1	514	1199103	1202692	1	515	1201221	4	407	1203125	1	515	1201221	1207724	1	518	1207581	3	606	organic	correct	1208374	1	518	1207581	1211356	1	519	1209701	4	620	1212006	1	520	1211821	moe_23630.png	moe_Pommes.png	moe_Waschbaer.png	ok
67400	08/25/2021 15:34:31	1	56	107310	1216321	1	522	1216062	1219520	1	523	1218181	2	222	inorganic	correct	1219770	1	523	1218181	1224535	1	525	1222421	4	262	1224818	1	526	1224541	1229333	1	528	1228781	2	797	inorganic	correct	1230166	1	528	1228781	1233299	1	530	1233021	4	381	1233715	1	530	1233021	fan_18894.png	fan_Lampe.png	fan_Klavier.png	ok
67400	08/25/2021 15:34:52	1	57	107310	1236781	1	531	1235141	1239596	1	533	1239381	2	1754	organic	incorrect	1241379	1	533	1239381	1243895	1	535	1243621	3	1314	1245245	1	535	1243621	1248177	1	537	1247861	2	964	organic	correct	1249177	1	537	1247861	1253458	1	539	1252101	4	370	1253858	1	539	1252101	mom_59641.png	mom_Loewe.png	mom_Ei.png	ok
67400	08/25/2021 15:35:13	1	58	107310	1257907	1	541	1256341	1259873	1	542	1258461	2	1307	inorganic	correct	1261206	1	543	1260582	1263905	1	544	1262701	2	1065	1265005	1	545	1264821	1269103	1	547	1269060	3	1101	inorganic	correct	1270236	1	547	1269060	1274235	1	549	1273301	4	463	1274735	1	549	1273301	mae_36426.png	mae_Taschenrechner.png	mae_Schach.png	ok
67400	08/25/2021 15:35:34	1	59	107310	1278350	1	551	1277540	1281599	1	552	1279661	2	784	inorganic	correct	1282415	1	553	1281781	1285548	1	554	1283900	2	706	1286281	1	555	1286021	1290713	1	557	1290261	3	909	inorganic	correct	1291646	1	557	1290261	1295144	1	559	1294501	4	260	1295428	1	559	1294501	map_49576.png	map_Globus.png	map_Pfeife.png	ok
67400	08/25/2021 15:35:54	1	60	107310	1299560	1	561	1298740	1301476	1	562	1300860	3	223	inorganic	incorrect	1301725	1	562	1300860	1305991	1	564	1305101	4	227	1306257	1	564	1305101	1311289	1	566	1309340	2	2034	inorganic	correct	1313355	1	567	1311461	1316254	1	569	1315700	4	286	1316570	1	569	1315700	mak_03979.png	mak_Socken.png	mak_Rucksack.png	ok
67400	08/25/2021 15:36:15	1	61	107310	1319936	1	570	1317820	1321885	1	571	1319941	3	269	organic	correct	1322185	1	572	1322060	1325284	1	573	1324180	4	491	1325801	1	573	1324180	1329866	1	575	1328421	3	1293	organic	correct	1331182	1	576	1330540	1334864	1	578	1334781	4	352	1335247	1	578	1334781	for_15880.png	for_Mandel.png	for_Seehund.png	ok
67400	08/25/2021 15:36:37	1	62	107310	1340079	1	580	1339020	1343278	1	581	1341140	2	258	organic	incorrect	1343561	1	582	1343261	1348460	1	584	1347500	2	272	1348760	1	584	1347500	1352758	1	586	1351741	2	1576	organic	correct	1354391	1	587	1353860	1357490	1	588	1355980	4	216	1357756	1	588	1355980	mot_69770.png	mot_Hotdog.png	mot_Bison.png	ok
67400	08/25/2021 15:36:59	1	63	107310	1362738	1	591	1362340	1366237	1	592	1364460	2	286	inorganic	correct	1366554	1	592	1364460	1371402	1	595	1370820	4	313	1371752	1	595	1370820	1375784	1	597	1375061	2	537	inorganic	correct	1376350	1	597	1375061	1380982	1	599	1379300	4	232	1381249	1	599	1379300	fap_17119.png	fap_Kissen.png	fap_Knopf.png	ok
67400	08/25/2021 15:37:21	1	64	107310	1384364	1	601	1383540	1387280	1	602	1385660	2	533	organic	incorrect	1387846	1	603	1387780	1392378	1	605	1392020	2	904	1393311	1	605	1392020	1397160	1	607	1396260	3	1912	organic	correct	1399092	1	608	1398380	1400975	1	609	1400500	3	722	1401725	1	609	1400500	mon_69587.png	mon_Fuchs.png	mon_Kartoffel.png	ok
67400	08/25/2021 15:37:40	1	65	107310	1406123	1	611	1404740	1409272	1	613	1408980	2	241	inorganic	correct	1409539	1	613	1408980	1413221	1	614	1411100	4	224	1413471	1	615	1413220	1416653	1	616	1415340	2	759	inorganic	correct	1417436	1	616	1415340	1420269	1	618	1419580	4	288	1420585	1	618	1419580	fax_15310.png	fax_Fahrrad.png	fax_Klebeband.png	ok
67400	08/25/2021 15:38:00	1	66	107310	1425267	1	620	1423820	1428782	1	622	1428060	3	625	inorganic	incorrect	1429432	1	622	1428060	1432248	1	623	1430179	2	1047	1433331	1	624	1432300	1436996	1	626	1436539	3	1250	inorganic	correct	1438279	1	626	1436539	1441611	1	628	1440780	4	814	1442461	1	628	1440780	maw_22459.png	maw_Pingpongschlaeger.png	maw_Schlauchboot.png	ok
67400	08/25/2021 15:38:21	1	67	107310	1445860	1	630	1445019	1449409	1	632	1449260	2	826	inorganic	correct	1450258	1	632	1449260	1452941	1	633	1451379	4	293	1453274	1	633	1451379	1456706	1	635	1455620	2	390	inorganic	correct	1457140	1	635	1455620	1461305	1	637	1459859	4	237	1461571	1	637	1459859	maj_01546.png	maj_Krawatte.png	maj_Computermaus.png	ok
67400	08/25/2021 15:38:42	1	68	107310	1466603	1	640	1466220	1468652	1	641	1468339	2	731	inorganic	correct	1469419	1	641	1468339	1473501	1	643	1472580	4	286	1473817	1	643	1472580	1478332	1	645	1476819	2	471	inorganic	correct	1478832	1	645	1476819	1483664	1	648	1483179	4	235	1483930	1	648	1483179	fai_07637.png	fai_Kommode.png	fai_Foehn.png	ok
67400	08/25/2021 15:39:00	1	69	107310	1487246	1	649	1485299	1490628	1	651	1489539	2	216	inorganic	correct	1490878	1	651	1489539	1494860	1	653	1493779	2	286	1495177	1	653	1493779	1498226	1	655	1498019	3	1134	inorganic	correct	1499392	1	655	1498019	1501891	1	656	1500139	4	390	1502324	1	657	1502259	fab_06286.png	fab_Staubsauger.png	fab_Kinderwagen.png	ok
67400	08/25/2021 15:39:20	1	70	107310	1505673	1	658	1504380	1509055	1	660	1508619	3	367	inorganic	incorrect	1509455	1	660	1508619	1514270	1	662	1512859	3	238	1514537	1	662	1512859	1517869	1	664	1517099	2	1511	inorganic	correct	1519402	1	665	1519219	1522101	1	666	1521339	3	473	1522601	1	666	1521339	faw_14685.png	faw_Kuechenmaschine.png	faw_Hufeisen.png	ok
67400	08/25/2021 15:39:38	1	71	107310	1525616	1	668	1525579	1527516	1	668	1525579	3	356	organic	correct	1527899	1	669	1527700	1530898	1	670	1529819	4	237	1531164	1	670	1529819	1534830	1	672	1534059	2	484	organic	correct	1535346	1	672	1534059	1539095	1	674	1538299	4	327	1539445	1	674	1538299	moh_07125.png	moh_Birne.png	moh_Muecke.png	ok
67400	08/25/2021 15:39:57	1	72	107310	1543910	1	676	1542539	1546776	1	677	1544659	2	362	organic	incorrect	1547159	1	678	1546779	1550991	1	679	1548899	2	266	1551291	1	680	1551018	1555190	1	681	1553139	2	2004	organic	incorrect	1557222	1	682	1555259	1558988	1	683	1557379	2	436	1559455	1	683	1557379	mol_11363.png	mol_Schimpanse.png	mol_Pizza.png	ok
67400	08/25/2021 15:40:19	1	73	107310	1562937	1	685	1561619	1565036	1	686	1563739	3	1359	organic	correct	1566419	1	687	1565858	1570201	1	689	1570099	3	888	1571118	1	689	1570099	1575250	1	691	1574338	2	710	organic	correct	1575983	1	691	1574338	1580598	1	693	1578579	4	303	1580931	1	694	1580699	foc_02664.png	foc_Eule.png	foc_Brombeere.png	ok
67400	08/25/2021 15:40:38	1	74	107310	1584880	1	695	1582818	1587395	1	697	1587059	3	220	organic	correct	1587645	1	697	1587059	1591844	1	699	1591298	4	243	1592110	1	699	1591298	1595409	1	700	1593419	2	581	organic	correct	1596026	1	701	1595539	1599608	1	702	1597658	4	231	1599875	1	703	1599779	moj_11860.png	moj_Walnuss.png	moj_Blatt.png	ok
67400	08/25/2021 15:40:59	1	75	107310	1603473	1	704	1601899	1605789	1	705	1604018	2	811	organic	incorrect	1606622	1	706	1606138	1610621	1	708	1610379	2	498	1611154	1	708	1610379	1615119	1	710	1614618	2	1277	organic	correct	1616419	1	710	1614618	1620418	1	712	1618859	4	255	1620701	1	712	1618859	mof_06901.png	mof_Hahn.png	mof_Spaghetti.png	ok
67400	08/25/2021 15:41:22	1	76	107310	1624450	1	714	1623098	1627515	1	716	1627338	2	1015	inorganic	correct	1628565	1	716	1627338	1632347	1	718	1631578	2	380	1632763	1	718	1631578	1637062	1	720	1635818	2	2587	inorganic	correct	1639678	1	721	1637938	1642110	1	722	1640059	2	280	1642427	1	723	1642178	fat_14140.png	fat_Einkaufswagen.png	fat_Kleiderbuegel.png	ok
67400	08/25/2021 15:41:42	1	77	107310	1647225	1	725	1646418	1649524	1	726	1648539	2	227	inorganic	correct	1649774	1	726	1648539	1654406	1	728	1652778	4	258	1654689	1	728	1652778	1658755	1	730	1657019	3	464	inorganic	correct	1659254	1	731	1659138	1663053	1	732	1661258	4	371	1663453	1	733	1663378	mai_23761.png	mai_Gewehr.png	mai_Auto.png	ok
67400	08/25/2021 15:42:02	1	78	107310	1667635	1	734	1665498	1670850	1	736	1669738	2	512	inorganic	correct	1671400	1	736	1669738	1675066	1	738	1673978	2	620	1675716	1	738	1673978	1679764	1	740	1678218	2	1187	inorganic	correct	1680980	1	741	1680338	1683380	1	742	1682458	2	887	1684296	1	742	1682458	far_06518.png	far_Giesskanne.png	far_Heissluftballon.png	ok
67400	08/25/2021 15:42:24	1	79	107310	1687328	1	744	1686698	1690794	1	745	1688818	2	264	inorganic	correct	1691094	1	746	1690938	1695625	1	748	1695178	4	438	1696092	1	748	1695178	1700440	1	749	1697298	3	519	inorganic	correct	1701007	1	749	1697298	1704339	1	751	1703657	4	277	1704639	1	751	1703657	mal_20552.png	mal_Kugelschreiber.png	mal_Drucker.png	ok
67400	08/25/2021 15:42:42	1	80	107310	1709637	1	753	1707898	1711537	1	754	1710018	3	689	organic	correct	1712253	1	755	1712138	1715552	1	756	1714258	4	238	1715819	1	756	1714258	1720150	1	758	1718497	3	525	organic	correct	1720700	1	759	1720618	1723849	1	760	1722738	4	304	1724182	1	760	1722738	foq_17341.png	foq_Pinguin.png	foq_Fenchel.png	ok
67400	08/25/2021 15:43:03	1	81	107310	1727681	1	762	1726977	1730697	1	763	1729098	2	253	inorganic	correct	1730980	1	763	1729098	1735629	1	766	1735457	2	323	1735978	1	766	1735457	1739194	1	767	1737578	3	1340	inorganic	correct	1740560	1	768	1739698	1743609	1	769	1741817	4	298	1743942	1	769	1741817	mau_58144.png	mau_Wasserventil.png	mau_Leiter.png	ok
67400	08/25/2021 15:43:22	1	82	107310	1748757	1	772	1748178	1752006	1	773	1750297	3	588	organic	correct	1752639	1	774	1752417	1755372	1	775	1754538	4	238	1755638	1	775	1754538	1758787	1	776	1756658	2	493	organic	correct	1759304	1	777	1758777	1764136	1	779	1763018	4	448	1764619	1	779	1763018	mou_06524.png	mou_Croissant.png	mou_Kraehe.png	ok
67400	08/25/2021 15:43:43	1	83	107310	1768018	1	781	1767257	1770867	1	782	1769378	3	1450	organic	correct	1772349	1	783	1771498	1775948	1	785	1775737	4	253	1776231	1	785	1775737	1779297	1	786	1777858	2	537	organic	correct	1779864	1	786	1777858	1783862	1	788	1782097	4	235	1784129	1	788	1782097	fot_06092.png	fot_Taube.png	fot_Salat.png	ok
67400	08/25/2021 15:44:02	1	84	107310	1788961	1	791	1788457	1790976	1	792	1790577	2	1253	inorganic	correct	1792259	1	792	1790577	1794908	1	794	1794818	2	372	1795308	1	794	1794818	1799574	1	796	1799057	2	2362	inorganic	incorrect	1801973	1	797	1801178	1803322	1	797	1801178	2	457	1803805	1	798	1803297	mao_19000.png	mao_Kegel.png	mao_Stempel.png	ok
67400	08/25/2021 15:44:22	1	85	107310	1807238	1	799	1805417	1810553	1	801	1809658	2	313	inorganic	correct	1810903	1	801	1809658	1814485	1	802	1811777	2	314	1814835	1	802	1811777	1818900	1	804	1818137	2	1020	inorganic	correct	1819950	1	804	1818137	1823882	1	806	1822377	4	181	1824099	1	806	1822377	fac_02970.png	fac_Haarbuerste.png	fac_Ohrring.png	ok
67400	08/25/2021 15:44:44	1	86	107310	1827964	1	808	1826617	1831363	1	810	1830857	2	375	inorganic	correct	1831763	1	810	1830857	1835661	1	812	1835097	4	241	1835928	1	812	1835097	1840360	1	814	1839337	2	524	inorganic	correct	1840910	1	814	1839337	1845375	1	816	1843577	4	245	1845641	1	816	1843577	mac_59752.png	mac_Dartpfeil.png	mac_Medaille.png	ok
67400	08/25/2021 15:45:05	1	87	107310	1849623	1	818	1847817	1851423	1	819	1849937	2	866	organic	incorrect	1852322	1	820	1852057	1855855	1	821	1854177	2	461	1856338	1	822	1856296	1861119	1	824	1860537	2	1285	organic	correct	1862436	1	824	1860537	1865301	1	826	1864776	4	294	1865618	1	826	1864776	fok_09860.png	fok_Kaenguruh.png	fok_Palme.png	ok
67400	08/25/2021 15:45:25	1	88	107310	1870183	1	828	1869017	1872116	1	829	1871137	2	1025	organic	incorrect	1873165	1	829	1871137	1876498	1	831	1875377	2	252	1876781	1	831	1875377	1880330	1	833	1879616	2	1537	organic	correct	1881896	1	834	1881737	1885728	1	835	1883857	3	251	1886011	1	836	1885977	foa_00426.png	foa_Marienkaefer.png	foa_Aubergine.png	ok
67400	08/25/2021 15:45:46	1	89	107310	1890826	1	838	1890217	1894075	1	839	1892337	2	1245	organic	incorrect	1895341	1	840	1894456	1897724	1	841	1896576	2	1034	1898807	1	842	1898697	1901856	1	843	1900817	2	891	organic	correct	1902772	1	843	1900817	1906254	1	845	1905056	4	232	1906521	1	845	1905056	mog_03277.png	mog_Pilz.png	mog_Fledermaus.png	ok
67400	08/25/2021 15:46:07	1	90	107310	1911186	1	847	1909297	1913668	1	849	1913536	2	1124	inorganic	correct	1914818	1	849	1913536	1918900	1	851	1917776	2	1183	1920116	1	852	1919896	1923815	1	853	1922017	3	1870	inorganic	correct	1925714	1	854	1924137	1927997	1	855	1926256	4	342	1928363	1	855	1926256	fal_07977.png	fal_Korb.png	fal_Buegeleisen.png	ok
67400	08/25/2021 15:46:28	1	91	107310	1932945	1	858	1932616	1936361	1	859	1934736	2	246	inorganic	correct	1936644	1	859	1934736	1939709	1	861	1938977	4	320	1940059	1	861	1938977	1944508	1	863	1943216	3	637	inorganic	correct	1945174	1	863	1943216	1949156	1	865	1947457	4	274	1949473	1	865	1947457	fag_06551.png	fag_Geschenk.png	fag_Portemonnaie.png	ok
67400	08/25/2021 15:46:48	1	92	107310	1954038	1	868	1953817	1957570	1	869	1955936	2	609	inorganic	correct	1958203	1	870	1958056	1961819	1	871	1960176	2	727	1962568	1	872	1962297	1965767	1	873	1964416	3	1230	inorganic	correct	1967034	1	874	1966536	1969449	1	875	1968656	4	278	1969749	1	875	1968656	mas_41937.png	mas_Tisch.png	mas_Bueroklammer.png	ok
67400	08/25/2021 15:47:07	1	93	107310	1973998	1	877	1972896	1976147	1	878	1975016	2	515	inorganic	correct	1976697	1	878	1975016	1979646	1	880	1979256	2	276	1979946	1	880	1979256	1984594	1	882	1983496	3	1635	inorganic	correct	1986260	1	883	1985616	1988526	1	884	1987736	4	225	1988776	1	884	1987736	mat_23754.png	mat_Feuerzeug.png	mat_Helm.png	ok
67400	08/25/2021 15:47:27	1	94	107310	1992642	1	886	1991976	1994857	1	887	1994096	3	186	organic	correct	1995074	1	887	1994096	1999039	1	889	1998336	3	205	1999289	1	889	1998336	2003321	1	891	2002576	3	1055	organic	correct	2004404	1	891	2002576	2007253	1	893	2006816	4	249	2007536	1	893	2006816	mob_22833.png	mob_Igel.png	mob_Kiwi.png	ok
67400	08/25/2021 15:47:46	1	95	107310	2012568	1	895	2011056	2014817	1	896	2013176	2	244	organic	incorrect	2015084	1	896	2013176	2018766	1	898	2017415	2	259	2019049	1	898	2017415	2023514	1	900	2021656	2	2632	organic	correct	2026180	1	902	2025895	2027980	1	902	2025895	3	282	2028296	1	903	2028016	fop_07937.png	fop_Koala.png	fop_Mango.png	ok
67400	08/25/2021 15:48:07	1	96	107310	2031478	1	904	2030136	2034078	1	905	2032255	2	1007	organic	incorrect	2035110	1	906	2034376	2039359	1	908	2038616	2	301	2039692	1	908	2038616	2043541	1	910	2042856	3	970	organic	correct	2044541	1	910	2042856	2047873	1	912	2047095	4	278	2048189	1	912	2047095	fou_18966.png	fou_Feige.png	fou_Schmetterling.png	ok
