ID	DateTime	Run	Delayed_Retrieval_Trial	First_Pulse_Time	FaceRecog_OnsetTime	FaceRecog_OnsetTimeUncertainty	FaceRecog_fMRI_Pulse	FaceRecog_fMRI_PulseTime	Assoc_Retrieval_OnsetTime	Assoc_Retrieval_OnsetTimeUncertainty	Assoc_Retrieval_fMRI_Pulse	Assoc_Retrieval_fMRI_PulseTime	Assoc_Retrieval_Pressed_Button	Assoc_Retrieval_RT	Assoc_Retrieval_Response_Category	Assoc_Retrieval_Accuracy	Assoc_Retrieval_Feedback_OnsetTime	Assoc_Retrieval_Feedback_OnsetTimeUncertainty	Assoc_Retrieval_Feedback_fMRI_Pulse	Assoc_Retrieval_Feedback_fMRI_PulseTime	Retrieval_consc_Rating_OnsetTime	Retrieval_consc_Rating_OnsetTimeUncertainty	Retrieval_consc_Rating_fMRI_Pulse	Retrieval_consc_Rating_fMRI_PulseTime	Retrieval_consc_Rating_Pressed_Button	Retrieval_consc_Rating_RT	Retrieval_consc_Rating_Feedback_OnsetTime	Retrieval_consc_Rating_Feedback_OnsetTimeUncertainty	Retrieval_consc_Rating_Feedback_fMRI_Pulse	Retrieval_consc_Rating_Feedback_fMRI_PulseTime	ForcedChoice_OnsetTime	ForcedChoice_OnsetTimeUncertainty	ForcedChoice_fMRI_Pulse	ForcedChoice_fMRI_PulseTime	ForcedChoice_Pressed_Button	ForcedChoice_RT	ForcedChoice_Response_Category	ForcedChoice_Accuracy	ForcedChoice_Feedback_OnsetTime	ForcedChoice_Feedback_OnsetTimeUncertainty	ForcedChoice_Feedback_fMRI_Pulse	ForcedChoice_Feedback_fMRI_PulseTime	Recognition_consc_Rating_OnsetTime	Recognition_consc_Rating_OnsetTimeUncertainty	Recognition_consc_Rating_fMRI_Pulse	Recognition_consc_Rating_fMRI_PulseTime	Recognition_consc_Rating_Pressed_Button	Recognition_consc_Rating_RT	Recognition_consc_Rating_Feedback_OnsetTime	Recognition_consc_Rating_Feedback_OnsetTimeUncertainty	Recognition_consc_Rating_Feedback_fMRI_Pulse	Recognition_consc_Rating_Feedback_fMRI_PulseTime	Presented_Person	Presented_Target	Presented_Lure	TrialStatus
67475	07/21/2021 15:16:35	1	1	49289	62862	1	6	62790	66244	1	7	65489	3	1172	organic	correct	67443	1	7	65489	70459	1	8	68189	4	864	71359	1	9	70890	74241	1	10	73589	0	0	organic	miss	74241	1	11	76289	79273	1	12	78990	3	2098	81405	1	12	78990	fok_09378.png	fok_Kaenguruh.png	fok_Palme.png	ok
67475	07/21/2021 15:16:56	1	2	49289	84254	1	13	81689	87587	1	15	87090	2	1549	inorganic	correct	89169	1	15	87090	91119	1	16	89789	3	1238	92385	1	16	89789	95351	1	18	95189	2	2574	inorganic	correct	97950	1	19	97889	100349	1	19	97889	3	793	101165	1	20	100589	mao_11634.png	mao_Stempel.png	mao_Kegel.png	ok
67475	07/21/2021 15:17:18	1	3	49289	105397	1	21	103289	108863	1	23	108689	2	2446	organic	incorrect	111345	1	23	108689	113395	1	24	111389	3	1423	114844	1	25	114089	118543	1	26	116789	2	1949	organic	correct	120525	1	27	119489	122641	1	28	122189	4	1469	124141	1	28	122189	foj_08220.png	foj_Rose.png	foj_Waffel.png	ok
67475	07/21/2021 15:17:39	1	4	49289	126623	1	29	124889	129289	1	30	127589	3	395	organic	correct	129706	1	30	127589	134554	1	32	132989	4	924	135504	1	32	132989	138503	1	34	138389	2	2436	organic	correct	140969	1	34	138389	144068	1	36	143789	4	901	145001	1	36	143789	moh_06446.png	moh_Muecke.png	moh_Birne.png	ok
67475	07/21/2021 15:17:57	1	5	49289	147950	1	37	146489	149582	1	38	149188	2	668	organic	incorrect	150282	1	38	149188	153631	1	39	151889	3	1378	155064	1	40	154589	158963	1	41	157288	2	2044	organic	correct	161028	1	42	159989	162661	1	42	159989	4	776	163461	1	43	162689	foc_02157.png	foc_Brombeere.png	foc_Eule.png	ok
67475	07/21/2021 15:18:18	1	6	49289	166427	1	44	165388	169942	1	45	168089	2	290	inorganic	correct	170259	1	45	168089	174424	1	47	173488	2	654	175107	1	47	173488	179556	1	49	178889	0	0	inorganic	miss	179556	1	50	181588	183837	1	50	181588	3	2414	186287	1	51	184289	fac_02146.png	fac_Haarbuerste.png	fac_Ohrring.png	ok
67475	07/21/2021 15:18:39	1	7	49289	187320	1	52	186989	189769	1	53	189688	3	2660	inorganic	incorrect	192451	1	54	192389	195017	1	54	192389	3	878	195917	1	55	195088	198849	1	56	197788	0	0	inorganic	miss	198849	1	57	200489	204214	1	58	203188	2	1629	205897	1	58	203188	mae_01010.png	mae_Taschenrechner.png	mae_Schach.png	ok
67475	07/21/2021 15:18:58	1	8	49289	208529	1	59	205888	210362	1	60	208589	2	2199	organic	incorrect	212594	1	61	211288	215277	1	62	213988	2	1793	217093	1	63	216689	218926	1	63	216689	2	1904	organic	correct	220858	1	64	219388	222908	1	65	222088	3	1079	224024	1	65	222088	mol_07679.png	mol_Pizza.png	mol_Schimpanse.png	ok
67475	07/21/2021 15:19:17	1	9	49289	226906	1	66	224789	229672	1	67	227488	2	1763	inorganic	correct	231471	1	68	230188	233071	1	69	232889	4	2534	235637	1	70	235588	237853	1	70	235588	3	2300	inorganic	correct	240185	1	71	238288	242201	1	72	240988	4	2192	244417	1	73	243688	mau_49693.png	mau_Wasserventil.png	mau_Leiter.png	ok
67475	07/21/2021 15:19:35	1	10	49289	246033	1	73	243688	248816	1	74	246388	2	422	inorganic	correct	249265	1	75	249088	252281	1	76	251788	4	305	252614	1	76	251788	256180	1	77	254488	2	478	inorganic	correct	256696	1	77	254488	260728	1	79	259888	4	1432	262194	1	79	259888	mai_06530.png	mai_Auto.png	mai_Gewehr.png	ok
67475	07/21/2021 15:19:54	1	11	49289	264294	1	80	262588	265993	1	81	265288	3	513	organic	correct	266543	1	81	265288	271158	1	83	270688	4	967	272158	1	83	270688	274673	1	84	273388	2	1936	organic	correct	276639	1	85	276088	279705	1	86	278788	4	264	280005	1	86	278788	mos_20953.png	mos_Eintagsfliege.png	mos_Traube.png	ok
67475	07/21/2021 15:20:15	1	12	49289	283404	1	87	281488	286569	1	88	284188	2	584	inorganic	correct	287186	1	89	286888	291018	1	90	289588	4	296	291351	1	90	289588	295133	1	92	294988	2	576	inorganic	correct	295733	1	92	294988	300065	1	93	297688	4	2121	302214	1	94	300388	mat_23275.png	mat_Helm.png	mat_Feuerzeug.png	ok
67475	07/21/2021 15:20:38	1	13	49289	304530	1	95	303088	307662	1	96	305788	2	1342	inorganic	correct	309029	1	97	308488	312144	1	98	311188	3	1007	313177	1	98	311188	316359	1	99	313888	2	1841	inorganic	correct	318225	1	100	316588	321658	1	101	319288	4	332	322024	1	102	321988	far_00736.png	far_Giesskanne.png	far_Heissluftballon.png	ok
67475	07/21/2021 15:21:00	1	14	49289	326856	1	103	324688	329788	1	104	327388	2	277	inorganic	correct	330088	1	104	327388	334787	1	106	332787	2	1263	336086	1	107	335488	339035	1	108	338188	2	1090	inorganic	correct	340151	1	108	338188	344517	1	110	343588	4	337	344883	1	110	343588	fab_06018.png	fab_Staubsauger.png	fab_Kinderwagen.png	ok
67475	07/21/2021 15:21:21	1	15	49289	348782	1	111	346288	351481	1	112	348987	3	496	organic	correct	352031	1	113	351688	356196	1	114	354388	3	1573	357795	1	115	357087	360361	1	116	359788	0	0	organic	miss	360361	1	117	362488	365843	1	118	365187	4	1751	367625	1	118	365187	mog_03090.png	mog_Pilz.png	mog_Fledermaus.png	ok
67475	07/21/2021 15:21:41	1	16	49289	370441	1	119	367888	372141	1	120	370587	3	291	organic	correct	372457	1	120	370587	376323	1	122	375988	4	300	376656	1	122	375988	380804	1	123	378687	3	2863	organic	correct	383703	1	124	381387	385386	1	125	384088	3	2040	387452	1	126	386787	fop_00621.png	fop_Mango.png	fop_Koala.png	ok
67475	07/21/2021 15:22:01	1	17	49289	390351	1	127	389487	393800	1	128	392188	2	629	inorganic	correct	394450	1	128	392188	398398	1	130	397587	4	566	398998	1	130	397587	402014	1	131	400288	3	1043	inorganic	correct	403097	1	132	402987	406079	1	133	405687	4	324	406429	1	133	405687	maj_01545.png	maj_Computermaus.png	maj_Krawatte.png	ok
67475	07/21/2021 15:22:21	1	18	49289	410361	1	134	408388	412260	1	135	411087	2	1866	organic	incorrect	414160	1	136	413787	415859	1	136	413787	3	1260	417142	1	137	416488	420191	1	138	419187	2	2658	organic	correct	422873	1	139	421887	425606	1	140	424587	4	447	426089	1	140	424587	mou_01862.png	mou_Kraehe.png	mou_Croissant.png	ok
67475	07/21/2021 15:22:42	1	19	49289	429638	1	141	427287	432487	1	142	429987	2	1973	inorganic	correct	434486	1	143	432687	437668	1	144	435387	4	566	438268	1	145	438087	442683	1	146	440787	2	569	inorganic	correct	443283	1	146	440787	447049	1	148	446187	4	379	447465	1	148	446187	mak_00987.png	mak_Socken.png	mak_Rucksack.png	ok
67475	07/21/2021 15:23:02	1	20	49289	451580	1	149	448887	454163	1	150	451587	3	867	organic	correct	455063	1	151	454287	458195	1	152	456987	4	948	459178	1	152	456987	461960	1	153	459687	3	1843	organic	correct	463826	1	154	462386	465976	1	155	465087	4	456	466459	1	155	465087	fov_15046.png	fov_Zucchini.png	fov_Fisch.png	ok
67475	07/21/2021 15:23:20	1	21	49289	470841	1	157	470486	473107	1	157	470486	2	736	inorganic	correct	473873	1	158	473187	477488	1	159	475887	3	1030	478555	1	159	475887	481520	1	161	481287	2	1276	inorganic	incorrect	482820	1	161	481287	485852	1	162	483987	3	1446	487335	1	163	486686	map_41499.png	map_Globus.png	map_Pfeife.png	ok
67475	07/21/2021 15:23:41	1	22	49289	489251	1	163	486686	491550	1	164	489387	3	502	organic	correct	492083	1	164	489387	496199	1	166	494786	4	499	496732	1	166	494786	501330	1	168	500187	3	1022	organic	correct	502397	1	168	500187	505546	1	169	502886	4	791	506362	1	170	505587	fou_17118.png	fou_Schmetterling.png	fou_Feige.png	ok
67475	07/21/2021 15:24:02	1	23	49289	510544	1	171	508286	513576	1	172	510986	2	1024	inorganic	correct	514626	1	173	513687	518541	1	174	516386	3	1054	519624	1	175	519086	522673	1	176	521787	3	2096	inorganic	correct	524806	1	177	524486	526788	1	177	524486	4	319	527138	1	177	524486	fan_17286.png	fan_Lampe.png	fan_Klavier.png	ok
67475	07/21/2021 15:24:25	1	24	49289	531487	1	179	529887	534552	1	180	532586	2	1555	organic	incorrect	536135	1	181	535286	538901	1	182	537987	3	769	539701	1	182	537987	543399	1	183	540686	2	1793	organic	correct	545216	1	184	543386	548914	1	186	548786	4	404	549381	1	186	548786	mof_02408.png	mof_Spaghetti.png	mof_Hahn.png	ok
67475	07/21/2021 15:24:44	1	25	49289	553946	1	187	551486	555529	1	188	554186	3	2314	inorganic	incorrect	557878	1	189	556886	560560	1	190	559586	2	1376	561960	1	190	559586	564209	1	191	562286	2	1972	inorganic	correct	566208	1	192	564986	569474	1	193	567686	3	1414	570924	1	194	570386	mas_41366.png	mas_Bueroklammer.png	mas_Tisch.png	ok
67475	07/21/2021 15:25:04	1	26	49289	573239	1	195	573086	575522	1	195	573086	3	331	organic	correct	575889	1	196	575786	579771	1	197	578486	3	396	580204	1	197	578486	584952	1	199	583886	3	2214	organic	correct	587201	1	200	586586	589017	1	200	586586	4	944	589984	1	201	589286	moj_11821.png	moj_Blatt.png	moj_Walnuss.png	ok
67475	07/21/2021 15:25:24	1	27	49289	592633	1	202	591986	596082	1	203	594686	3	363	organic	correct	596482	1	203	594686	600963	1	205	600085	0	0	600963	1	206	602786	604745	1	206	602786	3	2395	organic	correct	607161	1	207	605486	608827	1	208	608185	3	1593	610444	1	208	608185	for_15187.png	for_Seehund.png	for_Mandel.png	ok
67475	07/21/2021 15:25:43	1	28	49289	612843	1	209	610886	614909	1	210	613586	3	354	organic	correct	615292	1	210	613586	618408	1	211	616285	4	353	618791	1	211	616285	623722	1	213	621686	2	673	organic	correct	624422	1	214	624385	627371	1	215	627086	4	1072	628471	1	215	627086	mot_69374.png	mot_Bison.png	mot_Hotdog.png	ok
67475	07/21/2021 15:26:03	1	29	49289	632386	1	216	629786	635768	1	218	635186	3	2616	organic	correct	638417	1	219	637885	639950	1	219	637885	3	813	640800	1	220	640585	644115	1	221	643286	3	2748	organic	incorrect	646898	1	222	645985	648281	1	222	645985	3	2579	650913	1	223	648685	foe_08236.png	foe_Tannenzapfen.png	foe_Adler.png	ok
67475	07/21/2021 15:26:22	1	30	49289	651863	1	224	651386	653529	1	224	651386	0	0	organic	miss	653529	1	225	654085	657644	1	226	656785	2	1234	658910	1	226	656785	662026	1	227	659486	3	1917	organic	correct	663975	1	228	662185	667374	1	229	664885	4	398	667808	1	230	667586	moe_02012.png	moe_Waschbaer.png	moe_Pommes.png	ok
67475	07/21/2021 15:26:42	1	31	49289	671140	1	231	670285	673022	1	232	672985	3	2126	inorganic	incorrect	675172	1	232	672985	676854	1	233	675686	3	968	677854	1	233	675686	681769	1	235	681085	2	1641	inorganic	correct	683436	1	235	681085	686485	1	236	683786	4	322	686834	1	237	686485	fat_12032.png	fat_Einkaufswagen.png	fat_Kleiderbuegel.png	ok
67475	07/21/2021 15:27:01	1	32	49289	691333	1	238	689185	693182	1	239	691885	2	1980	inorganic	correct	695198	1	240	694585	697697	1	241	697285	2	670	698414	1	241	697285	701080	1	242	699985	0	0	inorganic	miss	701080	1	243	702685	705945	1	244	705385	3	1177	707144	1	244	705385	fap_16329.png	fap_Knopf.png	fap_Kissen.png	ok
67475	07/21/2021 15:27:21	1	33	49289	709627	1	245	708085	711393	1	246	710785	3	1246	organic	correct	712676	1	246	710785	714742	1	247	713486	2	1523	716291	1	248	716185	719840	1	249	718885	3	1741	organic	correct	721606	1	249	718885	724805	1	251	724285	4	332	725171	1	251	724285	foi_03389.png	foi_Apfelkuchen.png	foi_Pflanze.png	ok
67475	07/21/2021 15:27:42	1	34	49289	729853	1	253	729686	731753	1	253	729686	2	1245	inorganic	correct	733035	1	254	732385	736918	1	255	735085	3	376	737317	1	255	735085	741299	1	257	740485	2	879	inorganic	correct	742199	1	257	740485	746181	1	259	745885	4	652	746881	1	259	745885	mac_59169.png	mac_Medaille.png	mac_Dartpfeil.png	ok
67475	07/21/2021 15:28:02	1	35	49289	751179	1	260	748585	753878	1	261	751285	3	2127	inorganic	incorrect	756028	1	262	753985	758210	1	263	756685	2	573	758810	1	263	756685	762109	1	264	759385	3	2347	inorganic	incorrect	764492	1	265	762085	766291	1	266	764785	3	765	767091	1	266	764785	fal_07906.png	fal_Buegeleisen.png	fal_Korb.png	ok
67475	07/21/2021 15:28:22	1	36	49289	770939	1	268	770185	774255	1	269	772885	3	1923	inorganic	incorrect	776204	1	270	775585	778187	1	270	775585	2	2184	780403	1	271	778285	783185	1	272	780985	3	1894	inorganic	incorrect	785101	1	273	783684	787334	1	274	786385	4	393	787750	1	274	786385	fax_14883.png	fax_Fahrrad.png	fax_Klebeband.png	ok
67475	07/21/2021 15:28:42	1	37	49289	791482	1	275	789085	793365	1	276	791784	2	2219	inorganic	correct	795631	1	277	794485	798763	1	278	797185	2	1002	799813	1	278	797185	802895	1	280	802585	3	2073	inorganic	incorrect	804995	1	280	802585	807194	1	281	805285	3	1373	808593	1	282	807984	faw_14215.png	faw_Kuechenmaschine.png	faw_Hufeisen.png	ok
67475	07/21/2021 15:29:01	1	38	49289	811309	1	283	810685	813725	1	284	813385	3	965	inorganic	incorrect	814725	1	284	813385	817124	1	285	816084	4	2312	819473	1	286	818785	822055	1	287	821485	3	806	inorganic	correct	822889	1	287	821485	825638	1	288	824184	4	325	825987	1	288	824184	maw_04767.png	maw_Pingpongschlaeger.png	maw_Schlauchboot.png	ok
67475	07/21/2021 15:29:19	1	39	49289	830103	1	290	829584	831852	1	290	829584	2	2624	inorganic	correct	834501	1	291	832284	836284	1	292	834985	2	1020	837334	1	292	834985	840449	1	294	840384	2	1598	inorganic	incorrect	842082	1	294	840384	844414	6	295	843085	4	1026	845498	1	295	843085	fag_06539.png	fag_Geschenk.png	fag_Portemonnaie.png	ok
67475	07/21/2021 15:29:39	1	40	49289	848230	1	296	845784	850129	1	297	848484	2	328	inorganic	correct	850479	1	297	848484	854811	1	299	853884	4	828	855661	1	299	853884	858710	1	300	856584	3	2189	inorganic	correct	860926	1	301	859285	863591	1	302	861984	0	0	863591	1	303	864684	mal_04470.png	mal_Drucker.png	mal_Kugelschreiber.png	ok
67475	07/21/2021 15:30:01	1	41	49289	868073	1	304	867385	870772	1	305	870084	2	2436	organic	incorrect	873238	1	306	872784	875937	1	307	875484	2	1378	877353	1	307	875484	880902	1	308	878184	3	2069	organic	correct	883002	1	309	880884	886284	1	310	883584	3	1137	887450	1	311	886284	foq_16799.png	foq_Pinguin.png	foq_Fenchel.png	ok
67475	07/21/2021 15:30:21	1	42	49289	889783	1	312	888984	892049	1	313	891684	3	762	inorganic	incorrect	892848	1	313	891684	895847	1	314	894384	2	857	896747	1	314	894384	900162	1	316	899784	3	2875	inorganic	correct	903061	1	317	902484	905327	1	318	905184	2	514	905877	1	318	905184	fai_07494.png	fai_Kommode.png	fai_Foehn.png	ok
67475	07/21/2021 15:30:41	1	43	49289	910476	1	319	907884	912625	1	320	910584	3	1196	organic	correct	913858	1	321	913283	916790	1	322	915984	3	1226	918040	1	322	915984	921539	1	324	921383	0	0	organic	miss	921539	1	325	924084	927020	1	326	926784	2	474	927520	1	326	926784	foa_00207.png	foa_Aubergine.png	foa_Marienkaefer.png	ok
67475	07/21/2021 15:31:01	1	44	49289	930552	1	327	929483	932252	1	328	932184	3	437	organic	correct	932718	1	328	932184	935717	1	329	934884	2	1459	937200	1	329	934884	939949	1	330	937583	3	2737	organic	incorrect	942715	1	331	940284	944348	1	332	942984	2	368	944764	1	332	942984	fot_00797.png	fot_Salat.png	fot_Taube.png	ok
67475	07/21/2021 15:31:20	1	45	49289	949712	1	334	948384	953211	1	335	951084	2	1121	inorganic	correct	954361	1	336	953783	956810	1	337	956484	2	2270	959109	1	337	956484	960375	1	338	959184	3	2373	inorganic	incorrect	962775	1	339	961883	964274	1	339	961883	3	606	964907	1	340	964584	faj_07783.png	faj_Schuh.png	faj_Parfuem.png	ok
67475	07/21/2021 15:31:41	1	46	49289	968823	1	341	967283	970805	1	342	969983	0	0	organic	miss	970805	1	343	972684	975654	1	344	975383	2	1710	977386	1	344	975383	979486	1	345	978083	2	966	organic	correct	980485	1	345	978083	984617	1	347	983483	4	217	984867	1	347	983483	mob_00760.png	mob_Igel.png	mob_Kiwi.png	ok
67475	07/21/2021 15:32:01	1	47	49289	989849	1	349	988884	993381	1	350	991583	2	310	organic	incorrect	993731	1	350	991583	996846	1	351	994283	3	2052	998929	1	352	996984	1002178	1	353	999683	3	2568	organic	correct	1004777	1	354	1002383	1006210	1	355	1005084	4	2086	1008326	1	356	1007783	mom_59361.png	mom_Ei.png	mom_Loewe.png	ok
67475	07/21/2021 15:32:20	1	48	49289	1010425	1	356	1007783	1013374	1	358	1013183	2	1643	organic	incorrect	1015040	1	358	1013183	1017123	1	359	1015883	2	1462	1018622	1	360	1018583	1021522	1	361	1021283	0	0	organic	miss	1021522	1	362	1023983	1025870	1	362	1023983	3	338	1026237	1	362	1023983	mon_65798.png	mon_Kartoffel.png	mon_Fuchs.png	ok
67475	07/21/2021 15:32:38	1	49	49289	1029286	1	363	1026683	1030902	1	364	1029383	3	1548	organic	correct	1032484	1	365	1032084	1035334	1	366	1034783	2	2269	1037633	1	367	1037483	1039465	1	367	1037483	2	2861	organic	correct	1042364	1	368	1040183	1043164	1	369	1042883	0	0	1043164	1	370	1045583	moh_07125.png	moh_Birne.png	moh_Muecke.png	ok
67475	07/21/2021 15:32:58	1	50	49289	1047046	1	370	1045583	1050545	1	371	1048283	2	1869	organic	incorrect	1052444	1	372	1050982	1054994	1	373	1053683	2	2575	1057593	1	374	1056383	1058342	1	374	1056383	0	0	organic	miss	1058342	1	375	1059082	1063141	1	376	1061783	3	2074	1065240	1	377	1064483	fok_09860.png	fok_Palme.png	fok_Kaenguruh.png	ok
67475	07/21/2021 15:33:18	1	51	49289	1067406	1	378	1067183	1070438	1	379	1069883	2	2103	inorganic	correct	1072571	1	379	1069883	1074220	1	380	1072583	2	876	1075120	1	380	1072583	1078086	1	382	1077983	2	2554	inorganic	correct	1080668	1	382	1077983	1083067	1	383	1080683	2	2706	1085800	1	384	1083383	mao_19000.png	mao_Kegel.png	mao_Stempel.png	ok
67475	07/21/2021 15:33:39	1	52	49289	1087283	1	385	1086083	1090582	1	386	1088783	3	1629	organic	correct	1092264	1	387	1091482	1094030	1	387	1091482	0	0	1094030	1	388	1094183	1098695	1	389	1096882	3	1219	organic	correct	1099945	1	390	1099582	1103361	1	391	1102283	4	328	1103710	1	391	1102283	foj_08937.png	foj_Waffel.png	foj_Rose.png	ok
67475	07/21/2021 15:33:58	1	53	49289	1107726	1	393	1107682	1110558	1	394	1110383	2	1744	inorganic	correct	1112324	1	394	1110383	1114723	1	395	1113082	2	1938	1116689	1	396	1115782	1118422	1	396	1115782	3	1489	inorganic	correct	1119938	1	397	1118483	1122321	1	398	1121182	4	368	1122721	1	398	1121182	fac_02970.png	fac_Ohrring.png	fac_Haarbuerste.png	ok
67475	07/21/2021 15:34:20	1	54	49289	1127236	1	400	1126583	1130768	1	401	1129282	2	2599	organic	incorrect	1133400	1	402	1131983	1134250	1	402	1131983	2	1552	1135833	1	403	1134683	1139548	1	404	1137382	2	2918	organic	correct	1142514	1	405	1140083	1144497	1	406	1142782	3	862	1145413	1	406	1142782	foc_02664.png	foc_Eule.png	foc_Brombeere.png	ok
67475	07/21/2021 15:34:41	1	55	49289	1149412	1	408	1148183	1152744	1	409	1150882	2	2215	organic	incorrect	1154993	1	410	1153582	1157542	1	411	1156283	2	1524	1159092	1	412	1158982	1161191	1	412	1158982	2	2109	organic	correct	1163324	1	413	1161682	1165290	1	414	1164383	3	1586	1166906	1	414	1164383	mol_11363.png	mol_Schimpanse.png	mol_Pizza.png	ok
67475	07/21/2021 15:35:00	1	56	49289	1170238	1	416	1169783	1172354	1	416	1169783	3	917	inorganic	incorrect	1173304	1	417	1172483	1176053	1	418	1175182	2	1530	1177619	1	418	1175182	1181118	1	420	1180584	2	1756	inorganic	correct	1182900	1	420	1180584	1185683	1	421	1183282	0	0	1185683	1	422	1185982	mae_36426.png	mae_Schach.png	mae_Taschenrechner.png	ok
67475	07/21/2021 15:35:24	1	57	49289	1189365	1	423	1188683	1192497	1	424	1191382	3	2255	organic	correct	1194796	1	425	1194082	1197662	1	426	1196783	3	2283	1199978	1	427	1199483	1202960	1	428	1202183	3	1840	organic	correct	1204826	1	428	1202183	1208075	1	430	1207582	4	1019	1209125	1	430	1207582	mos_23223.png	mos_Traube.png	mos_Eintagsfliege.png	ok
67475	07/21/2021 15:35:45	1	58	49289	1212907	1	431	1210282	1215173	1	432	1212983	2	1688	inorganic	correct	1216889	1	433	1215682	1219688	1	434	1218383	2	1322	1221038	1	434	1218383	1224003	1	436	1223782	3	1914	inorganic	correct	1225953	1	436	1223782	1229585	1	438	1229183	0	0	1229585	1	439	1231883	mau_58144.png	mau_Leiter.png	mau_Wasserventil.png	ok
67475	07/21/2021 15:36:05	1	59	49289	1233883	1	439	1231883	1236716	1	440	1234582	3	1433	inorganic	incorrect	1238182	1	441	1237283	1240364	1	442	1239983	2	1855	1242264	1	442	1239983	1243946	1	443	1242682	2	1556	inorganic	correct	1245529	1	444	1245383	1248795	1	445	1248083	3	2101	1250927	1	446	1250782	mat_23754.png	mat_Feuerzeug.png	mat_Helm.png	ok
67475	07/21/2021 15:36:23	1	60	49289	1253726	1	447	1253483	1256675	1	448	1256183	2	225	inorganic	correct	1256925	1	448	1256183	1260641	1	449	1258882	4	490	1261157	1	449	1258882	1264456	1	451	1264283	3	1404	inorganic	correct	1265889	1	451	1264283	1268222	1	452	1266982	4	1733	1269988	1	453	1269683	mai_23761.png	mai_Gewehr.png	mai_Auto.png	ok
67475	07/21/2021 15:36:42	1	61	49289	1272587	1	454	1272382	1274536	1	454	1272382	2	2672	organic	incorrect	1277235	1	455	1275082	1278202	1	456	1277783	2	1748	1279984	1	456	1277783	1282383	1	457	1280482	2	2352	organic	correct	1284766	1	458	1283182	1286116	1	459	1285883	3	2063	1288215	1	459	1285883	fop_07937.png	fop_Koala.png	fop_Mango.png	ok
67475	07/21/2021 15:37:02	1	62	49289	1291247	1	460	1288582	1293330	1	461	1291282	3	2403	inorganic	incorrect	1295762	1	462	1293983	1296862	1	463	1296682	3	1823	1298711	1	463	1296682	1301844	1	464	1299382	3	1698	inorganic	correct	1303576	1	465	1302083	1307125	1	466	1304782	4	305	1307458	1	466	1304782	far_06518.png	far_Heissluftballon.png	far_Giesskanne.png	ok
67475	07/21/2021 15:37:20	1	63	49289	1311557	1	468	1310183	1313606	1	469	1312882	3	609	inorganic	incorrect	1314239	1	469	1312882	1317005	1	470	1315582	2	2324	1319354	1	471	1318283	1320954	1	471	1318283	3	2181	inorganic	correct	1323170	1	472	1320982	1325469	1	473	1323682	4	304	1325802	1	473	1323682	fab_06286.png	fab_Kinderwagen.png	fab_Staubsauger.png	ok
67475	07/21/2021 15:37:42	1	64	49289	1329201	1	475	1329082	1331783	1	475	1329082	3	2408	organic	correct	1334216	1	476	1331782	1336532	1	477	1334482	3	888	1337448	1	478	1337182	1341730	1	479	1339882	2	2141	organic	correct	1343896	1	480	1342582	1345662	1	481	1345282	3	2496	1348195	1	482	1347982	mog_03277.png	mog_Fledermaus.png	mog_Pilz.png	ok
67475	07/21/2021 15:38:00	1	65	49289	1350877	1	483	1350682	1352793	1	483	1350682	2	1731	inorganic	correct	1354559	1	484	1353382	1356159	1	485	1356082	3	2430	1358624	1	485	1356082	1359657	1	486	1358782	3	1634	inorganic	correct	1361324	1	486	1358782	1365039	1	488	1364181	0	0	1365039	1	489	1366882	mak_03979.png	mak_Rucksack.png	mak_Socken.png	ok
67475	07/21/2021 15:38:20	1	66	49289	1369004	1	489	1366882	1372037	1	490	1369582	2	2083	organic	incorrect	1374153	1	491	1372281	1375569	1	492	1374982	2	1687	1377285	1	492	1374982	1380334	1	493	1377682	3	1227	organic	correct	1381583	1	494	1380381	1385465	1	495	1383082	3	1709	1387198	1	496	1385782	fov_15193.png	fov_Fisch.png	fov_Zucchini.png	ok
67475	07/21/2021 15:38:40	1	67	49289	1388848	1	497	1388481	1391613	1	498	1391182	0	0	inorganic	miss	1391613	1	499	1393882	1395779	1	499	1393882	2	315	1396128	1	499	1393882	1399711	1	501	1399282	2	1207	inorganic	correct	1400943	1	501	1399282	1404792	1	503	1404681	4	291	1405109	1	503	1404681	maj_01546.png	maj_Krawatte.png	maj_Computermaus.png	ok
67475	07/21/2021 15:39:01	1	68	49289	1409124	1	504	1407382	1411806	1	505	1410081	3	257	organic	correct	1412090	1	505	1410081	1415555	1	507	1415482	3	1184	1416771	1	507	1415482	1420670	1	508	1418181	2	2392	organic	incorrect	1423086	1	509	1420881	1424952	1	510	1423582	4	795	1425785	1	510	1423582	mou_06524.png	mou_Croissant.png	mou_Kraehe.png	ok
67475	07/21/2021 15:39:20	1	69	49289	1430184	1	512	1428981	1432683	1	513	1431682	3	1563	inorganic	incorrect	1434282	1	513	1431682	1436731	1	514	1434381	3	1109	1437881	1	515	1437081	1440647	1	516	1439782	3	2394	inorganic	correct	1443063	1	517	1442481	1445379	1	518	1445181	3	291	1445695	1	518	1445181	fan_18894.png	fan_Klavier.png	fan_Lampe.png	ok
67475	07/21/2021 15:39:41	1	70	49289	1449560	1	519	1447882	1453126	1	520	1450581	2	1561	organic	incorrect	1454709	1	521	1453281	1457058	1	522	1455981	0	0	1457058	1	523	1458681	1461123	1	523	1458681	3	1182	organic	correct	1462339	1	524	1461381	1466205	1	525	1464081	3	869	1467105	1	526	1466781	mof_06901.png	mof_Hahn.png	mof_Spaghetti.png	ok
67475	07/21/2021 15:40:01	1	71	49289	1470487	1	527	1469481	1473019	1	528	1472181	3	1452	inorganic	incorrect	1474502	1	528	1472181	1477168	1	529	1474881	3	892	1478084	1	530	1477581	1481066	1	531	1480281	2	1888	inorganic	incorrect	1482982	1	531	1480281	1485965	1	533	1485681	0	0	1485965	1	534	1488381	map_49576.png	map_Pfeife.png	map_Globus.png	ok
67475	07/21/2021 15:40:21	1	72	49289	1490280	1	534	1488381	1493529	1	535	1491081	3	2413	organic	correct	1495978	1	536	1493781	1498194	1	537	1496481	3	1631	1499860	1	538	1499181	1502509	1	539	1501881	2	1378	organic	correct	1503909	1	539	1501881	1506158	1	540	1504581	4	408	1506591	1	540	1504581	fou_18966.png	fou_Feige.png	fou_Schmetterling.png	ok
67475	07/21/2021 15:40:39	1	73	49289	1509840	1	541	1507281	1512339	1	542	1509981	2	2287	inorganic	correct	1514655	1	543	1512681	1516121	1	544	1515381	2	1122	1517271	1	544	1515381	1519720	1	545	1518081	0	0	inorganic	miss	1519720	1	546	1520781	1523386	1	546	1520781	2	2098	1525518	1	547	1523481	mas_41937.png	mas_Tisch.png	mas_Bueroklammer.png	ok
67475	07/21/2021 15:40:59	1	74	49289	1528450	1	548	1526181	1530616	1	549	1528881	3	1688	organic	correct	1532332	1	550	1531581	1534732	1	551	1534280	2	1176	1535965	1	551	1534280	1539897	1	553	1539681	2	2211	organic	correct	1542129	1	553	1539681	1544645	1	554	1542380	2	274	1544945	1	554	1542380	for_15880.png	for_Mandel.png	for_Seehund.png	ok
67475	07/21/2021 15:41:18	1	75	49289	1548527	1	556	1547780	1550560	1	557	1550480	2	1118	organic	incorrect	1551709	1	557	1550480	1554425	1	558	1553181	2	1060	1555508	1	558	1553181	1559373	1	560	1558581	3	1019	organic	correct	1560423	1	560	1558581	1562989	1	561	1561281	4	1258	1564272	1	562	1563980	mot_69770.png	mot_Hotdog.png	mot_Bison.png	ok
67475	07/21/2021 15:41:39	1	76	49289	1566854	1	563	1566681	1570203	1	564	1569381	2	1115	organic	incorrect	1571353	1	564	1569381	1574118	1	565	1572080	2	2275	1576418	1	566	1574780	1578500	1	567	1577481	3	2118	organic	correct	1580650	1	568	1580180	1582499	1	568	1580180	3	882	1583415	1	569	1582881	moj_11860.png	moj_Walnuss.png	moj_Blatt.png	ok
67475	07/21/2021 15:42:01	1	77	49289	1587814	1	570	1585581	1590929	1	571	1588280	2	1458	organic	incorrect	1592412	1	572	1590981	1594745	1	573	1593680	0	0	1594745	1	574	1596380	1600043	1	575	1599081	3	2980	organic	correct	1603059	1	576	1601780	1605608	1	577	1604480	2	1279	1606924	1	577	1604480	foe_08514.png	foe_Adler.png	foe_Tannenzapfen.png	ok
67475	07/21/2021 15:42:21	1	78	49289	1609706	1	578	1607181	1612489	1	579	1609880	3	2085	inorganic	incorrect	1614605	1	580	1612580	1617287	1	581	1615281	2	1131	1618453	1	582	1617980	1621169	1	583	1620680	0	0	inorganic	miss	1621169	1	584	1623381	1626317	1	585	1626080	0	0	1626317	1	586	1628780	fat_14140.png	fat_Kleiderbuegel.png	fat_Einkaufswagen.png	ok
67475	07/21/2021 15:42:40	1	79	49289	1629833	1	586	1628780	1632132	1	587	1631481	2	959	inorganic	correct	1633115	1	587	1631481	1635548	1	588	1634180	3	1252	1636847	1	588	1634180	1639030	1	589	1636880	3	1504	inorganic	incorrect	1640563	1	590	1639580	1643928	1	591	1642280	4	692	1644645	1	591	1642280	fap_17119.png	fap_Kissen.png	fap_Knopf.png	ok
67475	07/21/2021 15:43:01	1	80	49289	1648710	1	593	1647680	1651409	1	594	1650380	2	1552	organic	incorrect	1652992	1	594	1650380	1656057	1	596	1655780	2	1070	1657157	1	596	1655780	1661056	1	597	1658480	3	2932	organic	correct	1664021	1	599	1663880	1666654	1	600	1666580	3	312	1667004	1	600	1666580	moe_23630.png	moe_Pommes.png	moe_Waschbaer.png	ok
67475	07/21/2021 15:43:24	1	81	49289	1670069	1	601	1669280	1673568	1	602	1671980	2	1144	inorganic	correct	1674734	1	603	1674680	1678700	1	604	1677379	2	1760	1680483	1	605	1680080	1683881	1	606	1682780	0	0	inorganic	miss	1683881	1	607	1685479	1688363	1	608	1688180	2	1746	1690146	1	608	1688180	mac_59752.png	mac_Dartpfeil.png	mac_Medaille.png	ok
67475	07/21/2021 15:43:46	1	82	49289	1692678	1	609	1690880	1696194	1	610	1693579	3	399	organic	correct	1696627	1	611	1696280	1700792	1	612	1698980	2	1694	1702508	1	613	1701679	1704824	1	614	1704380	3	2455	organic	correct	1707307	1	615	1707080	1710256	1	616	1709779	3	967	1711255	1	616	1709779	foi_05187.png	foi_Pflanze.png	foi_Apfelkuchen.png	ok
67475	07/21/2021 15:44:06	1	83	49289	1715054	1	617	1712480	1717087	1	618	1715180	3	462	inorganic	incorrect	1717570	1	618	1715180	1721685	1	620	1720580	2	1525	1723235	1	620	1720580	1726200	1	622	1725979	3	1995	inorganic	incorrect	1728216	1	622	1725979	1731115	1	623	1728680	3	2548	1733715	1	624	1731379	fax_15310.png	fax_Klebeband.png	fax_Fahrrad.png	ok
67475	07/21/2021 15:44:28	1	84	49289	1734881	1	625	1734079	1738030	1	626	1736780	3	2045	inorganic	incorrect	1740096	1	627	1739479	1742745	1	628	1742179	2	2389	1745161	1	629	1744880	1747810	1	630	1747579	2	2484	inorganic	incorrect	1750326	1	631	1750279	1752708	1	631	1750279	2	1949	1754691	1	632	1752980	fal_07977.png	fal_Korb.png	fal_Buegeleisen.png	ok
67475	07/21/2021 15:44:51	1	85	49289	1757557	1	633	1755679	1761105	1	634	1758379	2	324	inorganic	correct	1761455	1	635	1761080	1765987	1	636	1763779	4	1245	1767270	1	637	1766479	1771069	1	638	1769179	3	1180	inorganic	correct	1772268	1	639	1771879	1775784	1	640	1774579	0	0	1775784	1	641	1777279	mal_20552.png	mal_Kugelschreiber.png	mal_Drucker.png	ok
67475	07/21/2021 15:45:09	1	86	49289	1780182	1	642	1779979	1781998	1	642	1779979	2	1066	inorganic	correct	1783115	1	643	1782679	1785697	1	644	1785379	2	760	1786497	1	644	1785379	1789912	1	645	1788079	2	1852	inorganic	incorrect	1791795	1	646	1790779	1794044	1	647	1793479	0	0	1794044	1	648	1796179	fag_06551.png	fag_Portemonnaie.png	fag_Geschenk.png	ok
67475	07/21/2021 15:45:29	1	87	49289	1798576	1	648	1796179	1800225	1	649	1798879	2	1356	inorganic	correct	1801608	1	650	1801579	1804841	1	651	1804279	2	1521	1806390	1	651	1804279	1809539	1	652	1806979	2	1276	inorganic	correct	1810839	1	653	1809679	1814654	1	654	1812379	4	495	1815187	1	655	1815078	maw_22459.png	maw_Schlauchboot.png	maw_Pingpongschlaeger.png	ok
67475	07/21/2021 15:45:50	1	88	49289	1818303	1	656	1817779	1821352	1	657	1820479	3	2630	inorganic	incorrect	1824017	1	658	1823178	1825000	1	658	1823178	2	976	1826000	1	659	1825879	1828349	1	659	1825879	0	0	inorganic	miss	1828349	1	661	1831278	1833831	1	661	1831278	2	697	1834581	1	662	1833979	faw_14685.png	faw_Hufeisen.png	faw_Kuechenmaschine.png	ok
67475	07/21/2021 15:46:11	1	89	49289	1839012	1	663	1836679	1841911	1	664	1839378	3	478	inorganic	incorrect	1842411	1	665	1842079	1846160	1	666	1844779	2	507	1846693	1	666	1844779	1851108	1	668	1850179	2	2613	inorganic	correct	1853757	1	669	1852879	1855840	1	670	1855578	2	2495	1858372	1	671	1858279	fai_07637.png	fai_Foehn.png	fai_Kommode.png	ok
67475	07/21/2021 15:46:33	1	90	49289	1860239	1	671	1858279	1862921	1	672	1860978	2	1331	organic	incorrect	1864287	1	673	1863678	1868153	1	674	1866379	2	861	1869036	1	674	1866379	1872268	1	676	1871778	3	2297	organic	incorrect	1874600	1	677	1874479	1877116	1	677	1874479	2	2219	1879365	1	678	1877178	fot_06092.png	fot_Taube.png	fot_Salat.png	ok
67475	07/21/2021 15:46:51	1	91	49289	1882298	1	679	1879878	1883964	1	680	1882579	3	1641	organic	correct	1885630	1	681	1885278	1888046	1	682	1887978	2	873	1888946	1	682	1887978	1891511	1	683	1890679	2	1273	organic	correct	1892811	1	683	1890679	1896093	1	684	1893378	0	0	1896093	1	686	1898779	foq_17341.png	foq_Fenchel.png	foq_Pinguin.png	ok
67475	07/21/2021 15:47:13	1	92	49289	1899709	1	686	1898779	1901675	1	687	1901478	0	0	organic	miss	1901675	1	688	1904178	1906973	1	689	1906878	2	1562	1908572	1	689	1906878	1911971	1	690	1909578	3	2091	organic	correct	1914087	1	691	1912279	1917036	1	692	1914978	2	2223	1919285	1	693	1917678	foa_00426.png	foa_Marienkaefer.png	foa_Aubergine.png	ok
67475	07/21/2021 15:47:35	1	93	49289	1921851	1	694	1920378	1925283	1	695	1923078	3	1225	organic	correct	1926533	1	696	1925778	1929082	1	697	1928478	2	2242	1931365	1	698	1931178	1933447	1	698	1931178	2	2669	organic	incorrect	1936146	1	699	1933878	1938845	1	700	1936578	2	2699	1941578	1	701	1939278	mon_69587.png	mon_Fuchs.png	mon_Kartoffel.png	ok
67475	07/21/2021 15:47:56	1	94	49289	1944110	1	702	1941978	1946993	1	703	1944678	2	1117	organic	incorrect	1948142	1	704	1947378	1950808	1	705	1950078	2	1192	1952024	1	705	1950078	1955673	1	707	1955478	0	0	organic	miss	1955673	1	708	1958178	1960038	1	708	1958178	3	350	1960421	1	708	1958178	mom_59641.png	mom_Loewe.png	mom_Ei.png	ok
67475	07/21/2021 15:48:17	1	95	49289	1964987	1	710	1963578	1968319	1	711	1966278	3	235	inorganic	incorrect	1968585	1	711	1966278	1972501	1	713	1971678	0	0	1972501	1	714	1974378	1976533	1	714	1974378	0	0	inorganic	miss	1976533	1	715	1977078	1981598	1	716	1979778	2	1594	1983230	1	717	1982478	faj_07849.png	faj_Parfuem.png	faj_Schuh.png	ok
67475	07/21/2021 15:48:36	1	96	49289	1985646	1	718	1985178	1987679	1	718	1985178	2	1147	organic	incorrect	1988862	1	719	1987878	1992211	1	720	1990577	2	2092	1994327	1	721	1993278	1996543	1	722	1995978	3	1476	organic	incorrect	1998042	1	722	1995978	2001224	1	723	1998677	2	2051	2003307	1	724	2001378	mob_22833.png	mob_Kiwi.png	mob_Igel.png	ok
