ID	DateTime	Run	Delayed_Retrieval_Trial	First_Pulse_Time	FaceRecog_OnsetTime	FaceRecog_OnsetTimeUncertainty	FaceRecog_fMRI_Pulse	FaceRecog_fMRI_PulseTime	Assoc_Retrieval_OnsetTime	Assoc_Retrieval_OnsetTimeUncertainty	Assoc_Retrieval_fMRI_Pulse	Assoc_Retrieval_fMRI_PulseTime	Assoc_Retrieval_Pressed_Button	Assoc_Retrieval_RT	Assoc_Retrieval_Response_Category	Assoc_Retrieval_Accuracy	Assoc_Retrieval_Feedback_OnsetTime	Assoc_Retrieval_Feedback_OnsetTimeUncertainty	Assoc_Retrieval_Feedback_fMRI_Pulse	Assoc_Retrieval_Feedback_fMRI_PulseTime	Retrieval_consc_Rating_OnsetTime	Retrieval_consc_Rating_OnsetTimeUncertainty	Retrieval_consc_Rating_fMRI_Pulse	Retrieval_consc_Rating_fMRI_PulseTime	Retrieval_consc_Rating_Pressed_Button	Retrieval_consc_Rating_RT	Retrieval_consc_Rating_Feedback_OnsetTime	Retrieval_consc_Rating_Feedback_OnsetTimeUncertainty	Retrieval_consc_Rating_Feedback_fMRI_Pulse	Retrieval_consc_Rating_Feedback_fMRI_PulseTime	ForcedChoice_OnsetTime	ForcedChoice_OnsetTimeUncertainty	ForcedChoice_fMRI_Pulse	ForcedChoice_fMRI_PulseTime	ForcedChoice_Pressed_Button	ForcedChoice_RT	ForcedChoice_Response_Category	ForcedChoice_Accuracy	ForcedChoice_Feedback_OnsetTime	ForcedChoice_Feedback_OnsetTimeUncertainty	ForcedChoice_Feedback_fMRI_Pulse	ForcedChoice_Feedback_fMRI_PulseTime	Recognition_consc_Rating_OnsetTime	Recognition_consc_Rating_OnsetTimeUncertainty	Recognition_consc_Rating_fMRI_Pulse	Recognition_consc_Rating_fMRI_PulseTime	Recognition_consc_Rating_Pressed_Button	Recognition_consc_Rating_RT	Recognition_consc_Rating_Feedback_OnsetTime	Recognition_consc_Rating_Feedback_OnsetTimeUncertainty	Recognition_consc_Rating_Feedback_fMRI_Pulse	Recognition_consc_Rating_Feedback_fMRI_PulseTime	Presented_Person	Presented_Target	Presented_Lure	TrialStatus
67903	09/01/2021 14:18:52	1	1	78866	91868	1	7	91586	95317	1	8	93705	2	932	inorganic	correct	96284	1	9	95826	98683	1	10	97946	2	1657	100365	1	11	100065	103864	1	12	102185	3	1886	inorganic	correct	105780	1	13	104306	108746	1	15	108545	3	595	109379	1	15	108545	mau_49693.png	mau_Wasserventil.png	mau_Leiter.png	ok
67903	09/01/2021 14:19:11	1	2	78866	112578	1	16	110665	114844	1	17	112786	2	1380	organic	incorrect	116260	1	18	114906	119692	1	20	119146	2	762	120475	1	20	119146	123358	1	21	121266	3	2322	organic	correct	125707	1	23	125505	128139	1	24	127626	3	463	128639	1	24	127626	mol_07679.png	mol_Schimpanse.png	mol_Pizza.png	ok
67903	09/01/2021 14:19:31	1	3	78866	131705	1	25	129746	134271	1	27	133985	3	1573	organic	correct	135870	1	27	133985	138986	1	29	138225	2	1684	140702	1	30	140345	144167	1	31	142465	2	2570	organic	correct	146766	1	33	146705	148149	1	33	146705	3	1820	149999	1	34	148825	foq_16799.png	foq_Fenchel.png	foq_Pinguin.png	ok
67903	09/01/2021 14:19:52	1	4	78866	151965	1	35	150945	154114	1	36	153066	3	1359	inorganic	incorrect	155497	1	37	155185	158079	1	38	157305	3	816	158929	1	38	157305	162011	1	40	161545	0	0	inorganic	miss	162011	1	41	163665	167276	1	42	165785	2	793	168093	1	43	167906	far_00736.png	far_Giesskanne.png	far_Heissluftballon.png	ok
67903	09/01/2021 14:20:11	1	5	78866	172374	1	45	172145	174524	1	46	174265	3	805	organic	correct	175357	1	46	174265	178439	1	47	176385	2	964	179439	1	48	178505	183087	1	50	182745	3	2479	organic	correct	185587	1	51	184865	187369	1	52	186985	4	2291	189685	1	53	189105	fok_09378.png	fok_Palme.png	fok_Kaenguruh.png	ok
67903	09/01/2021 14:20:30	1	6	78866	191285	1	54	191225	193317	1	54	191225	2	809	organic	incorrect	194150	1	55	193345	197716	1	57	197585	3	373	198116	1	57	197585	202164	1	59	201825	0	0	organic	miss	202164	1	60	203945	206846	1	61	206065	3	1991	208862	1	62	208185	mom_59361.png	mom_Loewe.png	mom_Ei.png	ok
67903	09/01/2021 14:20:50	1	7	78866	210911	1	63	210305	214344	1	64	212425	2	434	organic	incorrect	214810	1	65	214545	218026	1	66	216665	2	1239	219292	1	67	218785	221708	1	68	220905	3	2239	organic	correct	223974	1	69	223024	226639	1	70	225145	3	524	227189	1	70	225145	mon_65798.png	mon_Kartoffel.png	mon_Fuchs.png	ok
67903	09/01/2021 14:21:10	1	8	78866	230805	1	72	229385	232604	1	73	231504	3	1648	inorganic	incorrect	234303	1	74	233625	237669	1	75	235745	2	555	238252	1	76	237864	241501	1	77	239985	2	1815	inorganic	correct	243350	1	78	242105	246449	1	80	246344	3	362	246849	1	80	246344	mao_11634.png	mao_Kegel.png	mao_Stempel.png	ok
67903	09/01/2021 14:21:31	1	9	78866	251131	1	82	250585	254447	1	83	252705	2	1384	inorganic	correct	255863	1	84	254824	259695	1	86	259065	2	412	260145	1	86	259065	263694	1	88	263304	2	2316	inorganic	correct	266043	1	89	265425	267759	1	90	267545	2	445	268225	1	90	267545	mas_41366.png	mas_Tisch.png	mas_Bueroklammer.png	ok
67903	09/01/2021 14:21:52	1	10	78866	271274	1	91	269664	274407	1	93	273905	3	910	organic	correct	275340	1	93	273905	278872	1	95	278144	3	323	279238	1	95	278144	283737	1	97	282385	2	2253	organic	correct	286019	1	98	284504	287319	1	99	286624	3	1657	289002	1	100	288745	fou_17118.png	fou_Feige.png	fou_Schmetterling.png	ok
67903	09/01/2021 14:22:14	1	11	78866	292467	1	101	290865	295000	1	102	292984	3	1018	inorganic	incorrect	296049	1	103	295104	300331	1	105	299344	3	1203	301564	1	106	301464	305146	1	107	303584	3	2568	inorganic	correct	307745	1	108	305705	310711	1	110	309944	2	261	310994	1	110	309944	fai_07494.png	fai_Foehn.png	fai_Kommode.png	ok
67903	09/01/2021 14:22:34	1	12	78866	314993	1	112	314185	317775	1	113	316304	3	926	organic	correct	318725	1	114	318424	321341	1	115	320545	2	369	321741	1	115	320545	326239	1	117	324784	2	2289	organic	incorrect	328572	1	118	326904	331204	1	120	331144	2	1238	332487	1	120	331144	moh_06446.png	moh_Muecke.png	moh_Birne.png	ok
67903	09/01/2021 14:22:56	1	13	78866	334936	1	121	333264	337785	1	123	337504	2	796	inorganic	correct	338618	1	123	337504	343067	1	125	341744	2	1455	344549	1	126	343864	348365	1	128	348104	3	2842	inorganic	incorrect	351231	1	129	350224	352580	1	130	352344	3	1656	354263	1	130	352344	mak_00987.png	mak_Rucksack.png	mak_Socken.png	ok
67903	09/01/2021 14:23:15	1	14	78866	356495	1	131	354464	358995	1	133	358704	3	1723	inorganic	incorrect	360744	1	133	358704	362443	1	134	360824	2	1034	363510	1	135	362944	366642	1	136	365064	2	1348	inorganic	correct	368025	1	137	367184	371140	1	138	369304	4	389	371557	1	139	371424	fax_14883.png	fax_Fahrrad.png	fax_Klebeband.png	ok
67903	09/01/2021 14:23:37	1	15	78866	376055	1	141	375663	378955	1	142	377784	2	588	organic	incorrect	379588	1	142	377784	383336	1	144	382024	2	238	383603	1	144	382024	388368	1	146	386264	2	2688	organic	correct	391084	1	148	390504	393666	1	149	392623	2	329	394033	1	149	392623	mou_01862.png	mou_Croissant.png	mou_Kraehe.png	ok
67903	09/01/2021 14:23:58	1	16	78866	397498	1	151	396864	399481	1	152	398983	2	2170	organic	incorrect	401680	1	153	401103	404463	1	154	403224	2	714	405212	1	154	403224	409028	1	156	407463	2	1490	organic	correct	410544	1	157	409584	413909	1	159	413824	4	399	414343	1	159	413824	foj_08220.png	foj_Rose.png	foj_Waffel.png	ok
67903	09/01/2021 14:24:17	1	17	78866	418458	1	161	418064	421457	1	162	420184	3	1932	organic	correct	423423	1	163	422303	425056	1	164	424423	2	912	426005	1	164	424423	429088	1	166	428664	3	2717	organic	correct	431853	1	167	430783	433169	1	168	432903	3	385	433586	1	168	432903	foa_00207.png	foa_Aubergine.png	foa_Marienkaefer.png	ok
67903	09/01/2021 14:24:39	1	18	78866	437268	1	170	437143	440700	1	171	439263	3	751	organic	correct	441483	1	172	441383	445699	1	174	445623	4	556	446282	1	174	445623	449764	1	175	447743	2	871	organic	correct	450664	1	176	449864	454562	1	178	454103	4	295	454895	1	178	454103	for_15187.png	for_Mandel.png	for_Seehund.png	ok
67903	09/01/2021 14:25:01	1	19	78866	459411	1	180	458344	461893	1	181	460463	3	1485	organic	correct	463409	1	182	462583	466558	1	183	464703	4	493	467075	1	184	466824	471023	1	185	468943	2	854	organic	correct	471906	1	186	471063	476405	1	188	475304	4	848	477305	1	188	475304	foc_02157.png	foc_Brombeere.png	foc_Eule.png	ok
67903	09/01/2021 14:25:20	1	20	78866	481387	1	190	479543	483269	1	191	481663	2	1328	organic	incorrect	484635	1	192	483783	488251	1	194	488023	2	1038	489317	1	194	488023	492499	1	196	492263	3	2417	organic	correct	494949	1	197	494383	496648	1	198	496503	4	1162	497848	1	198	496503	fop_00621.png	fop_Mango.png	fop_Koala.png	ok
67903	09/01/2021 14:25:43	1	21	78866	500813	1	200	500743	503912	1	201	502863	2	1050	inorganic	correct	504995	1	201	502863	508694	1	203	507103	2	1631	510360	1	204	509223	513592	1	206	513462	3	2288	inorganic	correct	515908	1	207	515583	518224	1	208	517703	3	279	518541	1	208	517703	map_41499.png	map_Pfeife.png	map_Globus.png	ok
67903	09/01/2021 14:26:03	1	22	78866	523439	1	210	521942	526205	1	211	524063	3	1294	organic	correct	527538	1	212	526183	529720	1	213	528303	2	1218	530986	1	214	530423	534119	1	215	532543	2	2008	organic	correct	536151	1	216	534663	539617	1	218	538903	3	326	539967	1	218	538903	mof_02408.png	mof_Hahn.png	mof_Spaghetti.png	ok
67903	09/01/2021 14:26:24	1	23	78866	543749	1	220	543143	546514	1	221	545262	2	436	inorganic	correct	546981	1	221	545262	551413	1	223	549503	3	820	552263	1	224	551623	555578	1	225	553742	3	2401	inorganic	correct	558011	1	226	555863	560493	1	228	560102	3	446	560976	1	228	560102	mae_01010.png	mae_Schach.png	mae_Taschenrechner.png	ok
67903	09/01/2021 14:26:42	1	24	78866	564225	1	229	562222	567057	1	231	566463	2	1432	inorganic	correct	568524	1	231	566463	571323	1	233	570702	2	939	572289	1	233	570702	574672	1	234	572823	3	2446	inorganic	correct	577171	1	236	577062	578337	1	236	577062	2	328	578704	1	236	577062	fan_17286.png	fan_Lampe.png	fan_Klavier.png	ok
67903	09/01/2021 14:27:02	1	25	78866	582869	1	238	581303	584785	1	239	583422	3	639	organic	correct	585451	1	239	583422	588450	1	241	587663	2	413	588900	1	241	587663	593648	1	243	591902	3	1865	organic	incorrect	595548	1	244	594022	598913	1	246	598262	2	1095	600046	1	246	598262	moe_02012.png	moe_Pommes.png	moe_Waschbaer.png	ok
67903	09/01/2021 14:27:23	1	26	78866	603029	1	248	602502	606344	1	249	604623	2	2337	inorganic	correct	608710	1	250	606742	610326	1	251	608862	2	1073	611426	1	252	610982	614308	1	253	613103	3	1252	inorganic	correct	615591	1	254	615222	618890	1	255	617342	4	424	619340	1	255	617342	fag_06539.png	fag_Geschenk.png	fag_Portemonnaie.png	ok
67903	09/01/2021 14:27:44	1	27	78866	623238	1	257	621582	626787	1	259	625822	2	1573	inorganic	correct	628403	1	260	627943	631986	1	261	630062	2	240	632252	1	262	632182	635718	1	263	634302	2	2155	inorganic	correct	637900	1	264	636423	639516	1	265	638542	3	1217	640766	1	266	640662	maw_04767.png	maw_Schlauchboot.png	maw_Pingpongschlaeger.png	ok
67903	09/01/2021 14:28:06	1	28	78866	644665	1	267	642782	647230	1	269	647022	3	1791	organic	correct	649046	1	269	647022	652479	1	271	651262	2	302	652812	1	271	651262	657810	1	274	657622	3	2369	organic	correct	660209	1	275	659742	661625	1	275	659742	2	318	661975	1	276	661862	foi_03389.png	foi_Apfelkuchen.png	foi_Pflanze.png	ok
67903	09/01/2021 14:28:25	1	29	78866	666840	1	278	666102	668756	1	279	668222	3	2182	inorganic	incorrect	670972	1	280	670342	672672	1	281	672462	2	949	673655	1	281	672462	676654	1	282	674581	2	2851	inorganic	incorrect	679536	1	284	678822	681502	1	285	680942	2	362	681902	1	285	680942	faw_14215.png	faw_Hufeisen.png	faw_Kuechenmaschine.png	ok
67903	09/01/2021 14:28:43	1	30	78866	685451	1	287	685182	687200	1	287	685182	3	2276	organic	correct	689499	1	289	689422	690582	1	289	689422	2	905	691515	1	289	689422	694581	1	291	693662	3	2103	organic	correct	696714	1	292	695782	698363	1	293	697901	4	1248	699646	1	293	697901	fov_15046.png	fov_Zucchini.png	fov_Fisch.png	ok
67903	09/01/2021 14:29:03	1	31	78866	703528	1	295	702142	705294	1	296	704262	2	247	inorganic	correct	705577	1	296	704262	710309	1	298	708502	2	540	710875	1	299	710622	714991	1	301	714861	3	2103	inorganic	correct	717123	1	302	716982	718989	1	302	716982	4	324	719339	1	303	719102	mal_04470.png	mal_Kugelschreiber.png	mal_Drucker.png	ok
67903	09/01/2021 14:29:24	1	32	78866	723338	1	304	721221	725770	1	306	725462	2	1222	inorganic	correct	727037	1	306	725462	731102	1	308	729701	3	401	731535	1	308	729701	735234	1	310	733942	0	0	inorganic	miss	735234	1	312	738181	740499	1	313	740302	2	1277	741798	1	313	740302	mac_59169.png	mac_Medaille.png	mac_Dartpfeil.png	ok
67903	09/01/2021 14:29:43	1	33	78866	744381	1	314	742422	747030	1	316	746661	3	1916	organic	correct	748979	1	317	748782	751378	1	318	750902	2	1492	752895	1	318	750902	755344	1	320	755141	2	2808	organic	correct	758176	1	321	757262	759142	1	321	757262	3	1133	760309	1	322	759381	foe_08236.png	foe_Adler.png	foe_Tannenzapfen.png	ok
67903	09/01/2021 14:30:02	1	34	78866	763524	1	323	761501	765374	1	324	763621	2	1986	inorganic	correct	767390	1	325	765742	770305	1	327	769981	2	1224	771555	1	327	769981	773821	1	328	772101	3	2336	inorganic	correct	776203	1	329	774222	778303	1	330	776341	3	406	778736	1	331	778461	fal_07906.png	fal_Korb.png	fal_Buegeleisen.png	ok
67903	09/01/2021 14:30:23	1	35	78866	782884	1	333	782701	785000	1	334	784821	2	1657	organic	incorrect	786683	1	334	784821	788549	1	335	786941	2	1516	790099	1	336	789062	793814	1	338	793301	3	2496	organic	correct	796347	1	339	795421	799262	1	340	797541	4	382	799679	1	340	797541	fot_00797.png	fot_Salat.png	fot_Taube.png	ok
67903	09/01/2021 14:30:44	1	36	78866	804027	1	343	803901	805877	1	343	803901	3	962	organic	correct	806860	1	344	806021	810808	1	346	810261	2	849	811691	1	346	810261	815957	1	348	814501	3	2081	organic	correct	818073	1	349	816621	821321	1	351	820861	4	577	821938	1	351	820861	mob_00760.png	mob_Igel.png	mob_Kiwi.png	ok
67903	09/01/2021 14:31:04	1	37	78866	825037	1	352	822981	827003	1	353	825101	3	985	organic	correct	828019	1	354	827221	831451	1	355	829341	4	1817	833301	1	356	831461	836566	1	358	835700	2	925	organic	correct	837516	1	358	835700	840998	1	360	839941	4	375	841398	1	360	839941	moj_11821.png	moj_Walnuss.png	moj_Blatt.png	ok
67903	09/01/2021 14:31:25	1	38	78866	844647	1	362	844180	847129	1	363	846301	2	598	inorganic	correct	847762	1	363	846301	850695	1	365	850541	3	1102	851828	1	365	850541	855626	1	367	854781	0	0	inorganic	miss	855626	1	368	856901	860358	1	369	859020	2	1142	861524	1	370	861140	maj_01545.png	maj_Computermaus.png	maj_Krawatte.png	ok
67903	09/01/2021 14:31:46	1	39	78866	865656	1	372	865381	868722	1	373	867500	2	1595	inorganic	correct	870355	1	374	869621	872221	1	375	871741	2	1347	873620	1	375	871741	877402	1	377	875980	3	1917	inorganic	correct	879352	1	378	878101	882651	1	380	882340	4	600	883284	1	380	882340	faj_07783.png	faj_Schuh.png	faj_Parfuem.png	ok
67903	09/01/2021 14:32:05	1	40	78866	886166	1	381	884460	887816	1	382	886581	2	407	organic	incorrect	888249	1	382	886581	891898	1	384	890820	3	402	892331	1	384	890820	896029	1	386	895061	2	2062	organic	incorrect	898112	1	387	897180	900728	1	388	899300	2	343	901094	1	388	899300	mos_20953.png	mos_Traube.png	mos_Eintagsfliege.png	ok
67903	09/01/2021 14:32:25	1	41	78866	905826	1	391	905660	907426	1	391	905660	3	1799	organic	correct	909258	1	392	907780	910774	1	393	909901	2	1475	912274	1	394	912020	915606	1	395	914140	2	1723	organic	correct	917356	1	396	916260	920288	1	397	918381	4	706	921038	1	398	920500	mog_03090.png	mog_Pilz.png	mog_Fledermaus.png	ok
67903	09/01/2021 14:32:46	1	42	78866	925436	1	400	924740	927136	1	401	926861	3	566	inorganic	incorrect	927735	1	401	926861	931884	1	403	931100	2	1055	932967	1	403	931100	937099	1	405	935340	3	1879	inorganic	incorrect	938998	1	406	937460	942230	1	408	941700	4	1964	944230	1	409	943820	mai_06530.png	mai_Gewehr.png	mai_Auto.png	ok
67903	09/01/2021 14:33:07	1	43	78866	947096	1	410	945940	949078	1	411	948060	2	1539	organic	incorrect	950644	1	412	950181	953777	1	413	952300	2	244	954043	1	413	952300	958142	1	415	956540	2	2003	organic	correct	960174	1	416	958660	963540	1	418	962900	4	338	963906	1	418	962900	mot_69374.png	mot_Hotdog.png	mot_Bison.png	ok
67903	09/01/2021 14:33:25	1	44	78866	967305	1	420	967140	969821	1	421	969260	3	940	inorganic	incorrect	970804	1	421	969260	974553	1	423	973499	2	1011	975586	1	423	973499	978535	1	425	977740	3	2522	inorganic	correct	981084	1	426	979860	982167	1	427	981979	4	1100	983300	1	427	981979	fat_12032.png	fat_Kleiderbuegel.png	fat_Einkaufswagen.png	ok
67903	09/01/2021 14:33:44	1	45	78866	985782	1	428	984100	987848	1	429	986220	2	1909	inorganic	correct	989781	1	430	988340	991764	1	431	990459	2	2002	993796	1	432	992580	996146	1	433	994700	2	2236	inorganic	correct	998411	1	434	996819	999911	1	435	998940	2	615	1000561	1	435	998940	fab_06018.png	fab_Staubsauger.png	fab_Kinderwagen.png	ok
67903	09/01/2021 14:34:06	1	46	78866	1004543	1	437	1003180	1007708	1	439	1007420	2	2405	inorganic	correct	1010141	1	440	1009540	1012573	1	441	1011659	3	1690	1014289	1	442	1013779	1016255	1	443	1015900	3	2057	inorganic	correct	1018338	1	444	1018020	1021637	1	445	1020139	4	300	1021987	1	445	1020139	fap_16329.png	fap_Kissen.png	fap_Knopf.png	ok
67903	09/01/2021 14:34:26	1	47	78866	1026352	1	447	1024380	1028418	1	448	1026500	3	642	inorganic	incorrect	1029084	1	449	1028619	1032367	1	450	1030740	2	1438	1033833	1	450	1030740	1037265	1	452	1037099	3	2103	inorganic	correct	1039398	1	453	1039220	1041180	1	453	1039220	4	537	1041747	1	454	1041340	fac_02146.png	fac_Ohrring.png	fac_Haarbuerste.png	ok
67903	09/01/2021 14:34:45	1	48	78866	1046495	1	456	1045579	1048578	1	457	1047700	2	1304	inorganic	correct	1049911	1	458	1049819	1052826	1	459	1051939	2	1355	1054209	1	460	1054059	1056275	1	461	1056180	3	2611	inorganic	incorrect	1058908	1	462	1058299	1061473	1	463	1060419	2	303	1061807	1	463	1060419	mat_23275.png	mat_Feuerzeug.png	mat_Helm.png	ok
67903	09/01/2021 14:35:06	1	49	78866	1065322	1	465	1064660	1068454	1	466	1066779	2	1687	inorganic	correct	1070187	1	467	1068899	1072686	1	468	1071020	3	1218	1073936	1	469	1073139	1077901	1	471	1077379	2	806	inorganic	correct	1078734	1	471	1077379	1082550	1	473	1081619	4	286	1082866	1	473	1081619	far_06518.png	far_Heissluftballon.png	far_Giesskanne.png	ok
67903	09/01/2021 14:35:25	1	50	78866	1086898	1	475	1085859	1088681	1	476	1087979	3	2223	organic	correct	1090930	1	477	1090099	1092296	1	478	1092219	2	858	1093179	1	478	1092219	1097561	1	480	1096459	3	2270	organic	correct	1099860	1	481	1098579	1102143	1	482	1100699	2	697	1102876	1	483	1102819	foq_17341.png	foq_Pinguin.png	foq_Fenchel.png	ok
67903	09/01/2021 14:35:46	1	51	78866	1105708	1	484	1104939	1108058	1	485	1107059	2	2211	organic	incorrect	1110290	1	486	1109179	1113089	1	487	1111298	2	1588	1114705	1	488	1113419	1116988	1	489	1115539	3	2825	organic	incorrect	1119854	1	491	1119779	1121370	1	491	1119779	2	343	1121753	1	491	1119779	mol_11363.png	mol_Pizza.png	mol_Schimpanse.png	ok
67903	09/01/2021 14:36:05	1	52	78866	1126468	1	494	1126138	1129867	1	495	1128259	3	675	inorganic	incorrect	1130567	1	496	1130379	1134299	1	497	1132499	2	901	1135232	1	498	1134618	1137981	1	499	1136739	2	2664	inorganic	incorrect	1140680	1	500	1138859	1141846	1	501	1140979	2	1063	1142946	1	501	1140979	mau_58144.png	mau_Leiter.png	mau_Wasserventil.png	ok
67903	09/01/2021 14:36:26	1	53	78866	1145945	1	503	1145219	1149060	1	504	1147339	2	396	organic	incorrect	1149494	1	504	1147339	1154259	1	507	1153699	2	858	1155142	1	507	1153699	1159140	1	509	1157938	2	2289	organic	correct	1161456	1	510	1160059	1162739	1	511	1162179	2	2069	1164838	1	512	1164299	fok_09860.png	fok_Kaenguruh.png	fok_Palme.png	ok
67903	09/01/2021 14:36:45	1	54	78866	1166605	1	513	1166418	1169554	1	514	1168539	2	2568	organic	incorrect	1172153	1	515	1170659	1173319	1	516	1172778	2	1929	1175285	1	517	1174898	1177884	1	518	1177019	2	2208	organic	correct	1180117	1	519	1179139	1182333	1	520	1181258	2	230	1182599	1	520	1181258	mon_69587.png	mon_Fuchs.png	mon_Kartoffel.png	ok
67903	09/01/2021 14:37:04	1	55	78866	1186131	1	522	1185499	1188014	1	523	1187618	3	1062	inorganic	incorrect	1189114	1	523	1187618	1191596	1	524	1189738	2	938	1192562	1	525	1191858	1195028	1	526	1193979	3	2387	inorganic	correct	1197444	1	527	1196098	1200193	1	528	1198218	4	427	1200643	1	529	1200339	mao_19000.png	mao_Stempel.png	mao_Kegel.png	ok
67903	09/01/2021 14:37:23	1	56	78866	1204442	1	530	1202459	1207157	1	532	1206698	3	1469	organic	correct	1208657	1	532	1206698	1212239	1	534	1210938	2	905	1213172	1	535	1213058	1216471	1	536	1215178	3	1826	organic	correct	1218337	1	537	1217299	1220353	1	538	1219418	4	941	1221336	1	538	1219418	mom_59641.png	mom_Ei.png	mom_Loewe.png	ok
67903	09/01/2021 14:37:44	1	57	78866	1223802	1	540	1223658	1226967	1	541	1225778	2	281	inorganic	correct	1227284	1	541	1225778	1230699	1	543	1230018	2	1166	1231899	1	543	1230018	1235315	1	545	1234258	3	1642	inorganic	incorrect	1236981	1	546	1236378	1240779	1	548	1240619	2	254	1241063	1	548	1240619	mas_41937.png	mas_Bueroklammer.png	mas_Tisch.png	ok
67903	09/01/2021 14:38:03	1	58	78866	1245011	1	550	1244858	1247544	1	551	1246978	3	372	organic	correct	1247944	1	551	1246978	1251826	1	553	1251218	2	940	1252792	1	553	1251218	1255591	1	555	1255458	3	2693	organic	correct	1258307	1	556	1257578	1259440	1	556	1257578	4	786	1260256	1	557	1259698	moh_07125.png	moh_Birne.png	moh_Muecke.png	ok
67903	09/01/2021 14:38:24	1	59	78866	1263655	1	558	1261818	1266704	1	560	1266058	2	256	inorganic	correct	1267004	1	560	1266058	1271302	1	562	1270298	2	1932	1273268	1	563	1272417	1276017	1	564	1274538	3	2047	inorganic	correct	1278100	1	565	1276658	1281149	1	567	1280898	2	260	1281432	1	567	1280898	fai_07637.png	fai_Kommode.png	fai_Foehn.png	ok
67903	09/01/2021 14:38:43	1	60	78866	1284948	1	568	1283018	1287047	1	569	1285138	2	967	organic	incorrect	1288047	1	570	1287257	1291046	1	571	1289378	2	1822	1292895	1	572	1291498	1294794	1	573	1293618	2	2123	organic	correct	1296944	1	574	1295737	1299360	1	575	1297858	4	401	1299793	1	575	1297858	fou_18966.png	fou_Schmetterling.png	fou_Feige.png	ok
67903	09/01/2021 14:39:02	1	61	78866	1303625	1	577	1302098	1305724	1	578	1304217	3	1805	organic	correct	1307557	1	579	1306338	1309156	1	580	1308458	2	1270	1310456	1	580	1308458	1312872	1	582	1312697	2	1982	organic	correct	1314888	1	583	1314818	1317903	1	584	1316938	3	1478	1319436	1	585	1319057	foj_08937.png	foj_Waffel.png	foj_Rose.png	ok
67903	09/01/2021 14:39:22	1	62	78866	1322318	1	586	1321178	1324901	1	587	1323298	2	323	organic	incorrect	1325251	1	587	1323298	1329066	1	589	1327537	2	1074	1330166	1	590	1329658	1333698	1	591	1331778	2	2949	organic	incorrect	1336680	1	593	1336017	1337947	1	593	1336017	2	1950	1339929	1	594	1338138	mou_06524.png	mou_Kraehe.png	mou_Croissant.png	ok
67903	09/01/2021 14:39:43	1	63	78866	1342712	1	596	1342377	1346260	1	597	1344497	3	1352	inorganic	incorrect	1347643	1	598	1346618	1351475	1	600	1350857	2	1210	1352708	1	600	1350857	1355957	1	602	1355098	3	2515	inorganic	incorrect	1358506	1	603	1357217	1359839	1	604	1359337	3	2557	1362422	1	605	1361457	mak_03979.png	mak_Socken.png	mak_Rucksack.png	ok
67903	09/01/2021 14:40:03	1	64	78866	1363405	1	605	1361457	1366603	1	607	1365697	2	297	inorganic	correct	1366953	1	607	1365697	1370169	1	609	1369938	2	1303	1371502	1	609	1369938	1374901	1	611	1374177	3	2196	inorganic	correct	1377117	1	612	1376297	1379749	1	613	1378418	3	722	1380499	1	613	1378418	fax_15310.png	fax_Klebeband.png	fax_Fahrrad.png	ok
67903	09/01/2021 14:40:23	1	65	78866	1383464	1	615	1382657	1385697	1	616	1384777	3	1694	organic	correct	1387413	1	617	1386897	1389862	1	618	1389017	2	1859	1391745	1	619	1391137	1394961	1	620	1393257	2	1654	organic	correct	1396643	1	621	1395377	1398926	1	622	1397497	3	1371	1400325	1	623	1399617	for_15880.png	for_Seehund.png	for_Mandel.png	ok
67903	09/01/2021 14:40:43	1	66	78866	1403441	1	624	1401737	1406407	1	626	1405977	3	895	organic	correct	1407340	1	626	1405977	1411338	1	628	1410217	2	320	1411688	1	628	1410217	1414937	1	630	1414457	2	1950	organic	correct	1416936	1	631	1416577	1419536	1	632	1418697	3	1236	1420802	1	632	1418697	fop_07937.png	fop_Koala.png	fop_Mango.png	ok
67903	09/01/2021 14:41:03	1	67	78866	1423351	1	634	1422937	1425467	1	635	1425056	2	1757	organic	incorrect	1427250	1	636	1427177	1430399	1	637	1429297	2	1124	1431548	1	638	1431417	1434231	1	639	1433536	2	1957	organic	correct	1436213	1	640	1435657	1438912	1	641	1437777	4	1496	1440445	1	642	1439896	foc_02664.png	foc_Eule.png	foc_Brombeere.png	ok
67903	09/01/2021 14:41:25	1	68	78866	1443944	1	643	1442017	1446393	1	645	1446257	3	1282	organic	correct	1447709	1	645	1446257	1451258	1	647	1450497	3	973	1452258	1	647	1450497	1455457	1	649	1454737	3	2161	organic	correct	1457639	1	650	1456856	1460972	1	651	1458977	2	1886	1462888	1	652	1461097	foa_00426.png	foa_Marienkaefer.png	foa_Aubergine.png	ok
67903	09/01/2021 14:41:46	1	69	78866	1466053	1	654	1465336	1467953	1	655	1467457	2	458	inorganic	correct	1468436	1	655	1467457	1472668	1	657	1471696	3	1406	1474100	1	658	1473816	1477966	1	659	1475937	2	2556	inorganic	correct	1480548	1	661	1480176	1482431	1	662	1482296	4	1058	1483514	1	662	1482296	fan_18894.png	fan_Klavier.png	fan_Lampe.png	ok
67903	09/01/2021 14:42:06	1	70	78866	1486296	1	663	1484417	1489629	1	665	1488656	3	1279	inorganic	incorrect	1490945	1	666	1490777	1493827	1	667	1492897	2	871	1494727	1	667	1492897	1498925	1	669	1497136	2	2151	inorganic	correct	1501108	1	670	1499257	1502674	1	671	1501376	3	1426	1504124	1	672	1503496	map_49576.png	map_Globus.png	map_Pfeife.png	ok
67903	09/01/2021 14:42:28	1	71	78866	1506806	1	673	1505616	1509338	1	674	1507737	3	1860	inorganic	incorrect	1511221	1	675	1509856	1513720	1	676	1511976	2	971	1514737	1	677	1514096	1519069	1	679	1518336	3	2540	inorganic	correct	1521634	1	680	1520456	1523484	1	681	1522576	3	1599	1525116	1	682	1524696	mae_36426.png	mae_Taschenrechner.png	mae_Schach.png	ok
67903	09/01/2021 14:42:45	1	72	78866	1528199	1	683	1526816	1529898	1	684	1528936	2	571	organic	incorrect	1530498	1	684	1528936	1534013	1	686	1533176	2	1913	1535963	1	687	1535296	1538712	1	688	1537416	2	2531	organic	correct	1541278	1	689	1539537	1542427	1	690	1541656	3	1547	1544010	1	691	1543776	mof_06901.png	mof_Spaghetti.png	mof_Hahn.png	ok
67903	09/01/2021 14:43:07	1	73	78866	1546009	1	692	1545896	1549492	1	693	1548016	2	1427	organic	incorrect	1550941	1	694	1550136	1552924	1	695	1552256	2	988	1553940	1	695	1552256	1557755	1	697	1556496	0	0	organic	miss	1557755	1	699	1560736	1562321	1	699	1560736	2	1414	1563787	1	700	1562856	foi_05187.png	foi_Pflanze.png	foi_Apfelkuchen.png	ok
67903	09/01/2021 14:43:26	1	74	78866	1567186	1	702	1567096	1568902	1	702	1567096	3	1604	inorganic	incorrect	1570534	1	703	1569216	1573300	1	704	1571336	2	1072	1574400	1	705	1573456	1577149	1	706	1575576	2	1236	inorganic	correct	1578415	1	707	1577695	1582097	1	709	1581936	3	1199	1583330	1	709	1581936	fag_06551.png	fag_Portemonnaie.png	fag_Geschenk.png	ok
67903	09/01/2021 14:43:46	1	75	78866	1586796	1	711	1586175	1589595	1	712	1588296	3	957	inorganic	incorrect	1590578	1	713	1590416	1593860	1	714	1592536	2	1291	1595176	1	715	1594655	1599108	1	717	1598896	3	2804	inorganic	correct	1601940	1	718	1601015	1602973	1	718	1601015	2	919	1603923	1	719	1603136	maw_22459.png	maw_Pingpongschlaeger.png	maw_Schlauchboot.png	ok
67903	09/01/2021 14:44:09	1	76	78866	1606672	1	720	1605256	1609421	1	721	1607376	2	342	organic	incorrect	1609788	1	722	1609495	1614386	1	724	1613736	3	517	1614953	1	724	1613736	1618985	1	726	1617975	2	2430	organic	correct	1621451	1	727	1620096	1624250	1	728	1622216	2	1225	1625499	1	729	1624335	moe_23630.png	moe_Waschbaer.png	moe_Pommes.png	ok
67903	09/01/2021 14:44:27	1	77	78866	1629331	1	731	1628576	1631764	1	732	1630696	2	1871	inorganic	correct	1633663	1	733	1632815	1635429	1	734	1634935	2	818	1636279	1	734	1634935	1639061	1	735	1637056	3	2407	inorganic	correct	1641494	1	737	1641295	1643893	1	738	1643416	3	408	1644326	1	738	1643416	mac_59752.png	mac_Dartpfeil.png	mac_Medaille.png	ok
67903	09/01/2021 14:44:45	1	78	78866	1647608	1	739	1645536	1649391	1	740	1647655	3	1806	organic	correct	1651224	1	741	1649775	1654556	1	743	1654016	2	993	1655572	1	743	1654016	1658355	1	745	1658255	3	1454	organic	correct	1659838	1	745	1658255	1662470	1	746	1660376	3	857	1663370	1	747	1662495	fov_15193.png	fov_Fisch.png	fov_Zucchini.png	ok
67903	09/01/2021 14:45:07	1	79	78866	1666135	1	748	1664615	1668485	1	749	1666735	3	2636	inorganic	incorrect	1671150	1	751	1670975	1673433	1	752	1673095	2	1847	1675316	1	753	1675215	1678365	1	754	1677335	3	2356	inorganic	incorrect	1680747	1	755	1679455	1683213	1	756	1681575	2	786	1684029	1	757	1683695	faw_14685.png	faw_Kuechenmaschine.png	faw_Hufeisen.png	ok
67903	09/01/2021 14:45:27	1	80	78866	1687312	1	758	1685815	1690261	1	760	1690055	2	1089	inorganic	correct	1691377	1	760	1690055	1693859	1	761	1692176	2	660	1694542	1	762	1694295	1697808	1	763	1696415	3	2471	inorganic	correct	1700307	1	764	1698535	1702207	1	765	1700655	3	1783	1704023	1	766	1702775	mal_20552.png	mal_Drucker.png	mal_Kugelschreiber.png	ok
67903	09/01/2021 14:45:46	1	81	78866	1707172	1	768	1707015	1708904	1	768	1707015	3	2455	organic	correct	1711403	1	770	1711255	1713003	1	770	1711255	2	1394	1714419	1	771	1713375	1716385	1	772	1715494	2	2189	organic	correct	1718601	1	773	1717615	1721600	1	774	1719735	2	1075	1722700	1	775	1721855	foe_08514.png	foe_Tannenzapfen.png	foe_Adler.png	ok
67903	09/01/2021 14:46:09	1	82	78866	1726315	1	777	1726095	1729731	1	778	1728215	2	1564	organic	incorrect	1731330	1	779	1730335	1733796	1	780	1732454	2	743	1734562	1	780	1732454	1738578	1	782	1736695	2	2865	organic	correct	1741477	1	784	1740935	1743876	1	785	1743055	3	412	1744326	1	785	1743055	fot_06092.png	fot_Taube.png	fot_Salat.png	ok
67903	09/01/2021 14:46:29	1	83	78866	1749191	1	787	1747293	1751673	1	789	1751535	3	1791	organic	correct	1753489	1	789	1751535	1756621	1	791	1755774	2	1020	1757671	1	791	1755774	1760237	1	793	1760014	3	2873	organic	correct	1763153	1	794	1762133	1765402	1	795	1764253	2	2347	1767784	1	796	1766375	mob_22833.png	mob_Kiwi.png	mob_Igel.png	ok
67903	09/01/2021 14:46:49	1	84	78866	1769934	1	797	1768494	1772000	1	798	1770613	3	2040	inorganic	incorrect	1774066	1	799	1772734	1777281	1	801	1776973	2	1752	1779064	1	801	1776973	1781396	1	803	1781214	0	0	inorganic	miss	1781396	1	804	1783334	1785562	1	805	1785453	2	679	1786278	1	805	1785453	fal_07977.png	fal_Buegeleisen.png	fal_Korb.png	ok
67903	09/01/2021 14:47:09	1	85	78866	1789844	1	807	1789694	1792443	1	808	1791813	2	1486	organic	incorrect	1793959	1	808	1791813	1796991	1	810	1796053	2	1147	1798174	1	810	1796053	1800790	1	812	1800294	0	0	organic	miss	1800790	1	813	1802413	1805938	1	814	1804533	2	258	1806221	1	814	1804533	mos_23223.png	mos_Eintagsfliege.png	mos_Traube.png	ok
67903	09/01/2021 14:47:31	1	86	78866	1810120	1	816	1808773	1812036	1	817	1810894	3	607	inorganic	incorrect	1812686	1	817	1810894	1816318	1	819	1815133	2	755	1817101	1	819	1815133	1821316	1	821	1819373	3	1959	inorganic	correct	1823299	1	822	1821494	1826265	1	824	1825733	2	333	1826631	1	824	1825733	maj_01546.png	maj_Krawatte.png	maj_Computermaus.png	ok
67903	09/01/2021 14:47:51	1	87	78866	1831513	1	826	1829973	1833162	1	826	1829973	2	580	organic	incorrect	1833779	1	826	1829973	1838477	1	828	1836333	2	1014	1839527	1	829	1838453	1841876	1	830	1840573	2	1401	organic	correct	1843309	1	831	1842693	1846191	1	832	1844813	3	1489	1847707	1	833	1846933	moj_11860.png	moj_Blatt.png	moj_Walnuss.png	ok
67903	09/01/2021 14:48:10	1	88	78866	1851506	1	835	1851173	1853605	1	836	1853293	2	1816	inorganic	correct	1855455	1	837	1855414	1858237	1	838	1857533	2	1996	1860286	1	839	1859653	1862552	1	840	1861773	2	1273	inorganic	correct	1863852	1	840	1861773	1866484	1	842	1866013	2	1706	1868217	1	843	1868133	faj_07849.png	faj_Parfuem.png	faj_Schuh.png	ok
67903	09/01/2021 14:48:32	1	89	78866	1871133	1	844	1870253	1873249	1	845	1872374	2	331	organic	incorrect	1873615	1	845	1872374	1878563	1	847	1876612	2	1482	1880080	1	848	1878733	1883429	1	850	1882974	2	2070	organic	correct	1885528	1	851	1885092	1887794	1	852	1887213	3	1171	1888993	1	852	1887213	mot_69770.png	mot_Bison.png	mot_Hotdog.png	ok
67903	09/01/2021 14:48:52	1	90	78866	1892842	1	854	1891452	1895824	1	856	1895693	3	2633	organic	correct	1898490	1	857	1897813	1899873	1	857	1897813	2	1676	1901572	1	858	1899932	1904005	1	859	1902053	2	1350	organic	correct	1905388	1	860	1904173	1908670	1	862	1908412	3	791	1909503	1	862	1908412	mog_03277.png	mog_Fledermaus.png	mog_Pilz.png	ok
67903	09/01/2021 14:49:13	1	91	78866	1912652	1	863	1910533	1915818	1	865	1914772	2	1901	inorganic	correct	1917750	1	866	1916892	1919416	1	867	1919013	2	1011	1920449	1	867	1919013	1924048	1	869	1923252	3	1949	inorganic	correct	1926031	1	870	1925372	1929396	1	871	1927494	2	252	1929680	1	872	1929612	fat_14140.png	fat_Einkaufswagen.png	fat_Kleiderbuegel.png	ok
67903	09/01/2021 14:49:33	1	92	78866	1933978	1	874	1933853	1935611	1	874	1933853	2	639	inorganic	correct	1936277	1	875	1935973	1940026	1	876	1938092	3	1453	1941509	1	877	1940212	1943758	1	878	1942333	2	2639	inorganic	correct	1946424	1	879	1944453	1949106	1	881	1948692	3	1878	1951022	1	882	1950813	mai_23761.png	mai_Auto.png	mai_Gewehr.png	ok
67903	09/01/2021 14:49:54	1	93	78866	1953388	1	883	1952932	1956454	1	884	1955053	2	964	inorganic	correct	1957470	1	885	1957172	1960636	1	886	1959293	4	283	1960952	1	886	1959293	1965084	1	888	1963532	3	1159	inorganic	correct	1966267	1	889	1965652	1970216	1	891	1969892	3	1962	1972215	1	892	1972013	fap_17119.png	fap_Knopf.png	fap_Kissen.png	ok
67903	09/01/2021 14:50:13	1	94	78866	1974598	1	893	1974133	1976397	1	894	1976252	2	972	inorganic	correct	1977396	6	894	1976252	1980762	1	896	1980492	2	1929	1982728	1	897	1982613	1985377	1	898	1984732	3	1601	inorganic	correct	1987010	1	899	1986852	1989976	1	900	1988972	4	2220	1992225	1	901	1991092	fab_06286.png	fab_Kinderwagen.png	fab_Staubsauger.png	ok
67903	09/01/2021 14:50:32	1	95	78866	1994041	1	902	1993212	1995774	1	903	1995332	3	1537	inorganic	incorrect	1997340	1	903	1995332	1999672	1	905	1999572	2	1189	2000889	1	905	1999572	2003588	1	906	2001692	2	2108	inorganic	correct	2005737	1	907	2003812	2008553	1	909	2008052	2	882	2009486	1	909	2008052	fac_02970.png	fac_Haarbuerste.png	fac_Ohrring.png	ok
67903	09/01/2021 14:50:52	1	96	78866	2012302	1	910	2010172	2015284	1	912	2014412	2	745	inorganic	correct	2016050	1	912	2014412	2019266	1	914	2018652	2	922	2020216	1	914	2018652	2023414	1	916	2022892	2	2288	inorganic	incorrect	2025730	1	917	2025012	2027846	1	918	2027132	2	291	2028163	1	918	2027132	mat_23754.png	mat_Helm.png	mat_Feuerzeug.png	ok
