ID	DateTime	Run	Delayed_Retrieval_Trial	First_Pulse_Time	FaceRecog_OnsetTime	FaceRecog_OnsetTimeUncertainty	FaceRecog_fMRI_Pulse	FaceRecog_fMRI_PulseTime	Assoc_Retrieval_OnsetTime	Assoc_Retrieval_OnsetTimeUncertainty	Assoc_Retrieval_fMRI_Pulse	Assoc_Retrieval_fMRI_PulseTime	Assoc_Retrieval_Pressed_Button	Assoc_Retrieval_RT	Assoc_Retrieval_Response_Category	Assoc_Retrieval_Accuracy	Assoc_Retrieval_Feedback_OnsetTime	Assoc_Retrieval_Feedback_OnsetTimeUncertainty	Assoc_Retrieval_Feedback_fMRI_Pulse	Assoc_Retrieval_Feedback_fMRI_PulseTime	Retrieval_consc_Rating_OnsetTime	Retrieval_consc_Rating_OnsetTimeUncertainty	Retrieval_consc_Rating_fMRI_Pulse	Retrieval_consc_Rating_fMRI_PulseTime	Retrieval_consc_Rating_Pressed_Button	Retrieval_consc_Rating_RT	Retrieval_consc_Rating_Feedback_OnsetTime	Retrieval_consc_Rating_Feedback_OnsetTimeUncertainty	Retrieval_consc_Rating_Feedback_fMRI_Pulse	Retrieval_consc_Rating_Feedback_fMRI_PulseTime	ForcedChoice_OnsetTime	ForcedChoice_OnsetTimeUncertainty	ForcedChoice_fMRI_Pulse	ForcedChoice_fMRI_PulseTime	ForcedChoice_Pressed_Button	ForcedChoice_RT	ForcedChoice_Response_Category	ForcedChoice_Accuracy	ForcedChoice_Feedback_OnsetTime	ForcedChoice_Feedback_OnsetTimeUncertainty	ForcedChoice_Feedback_fMRI_Pulse	ForcedChoice_Feedback_fMRI_PulseTime	Recognition_consc_Rating_OnsetTime	Recognition_consc_Rating_OnsetTimeUncertainty	Recognition_consc_Rating_fMRI_Pulse	Recognition_consc_Rating_fMRI_PulseTime	Recognition_consc_Rating_Pressed_Button	Recognition_consc_Rating_RT	Recognition_consc_Rating_Feedback_OnsetTime	Recognition_consc_Rating_Feedback_OnsetTimeUncertainty	Recognition_consc_Rating_Feedback_fMRI_Pulse	Recognition_consc_Rating_Feedback_fMRI_PulseTime	Presented_Person	Presented_Target	Presented_Lure	TrialStatus
68227	06/23/2021 13:12:39	1	1	182650	194117	1	6	193244	196883	1	7	195370	2	2162	organic	incorrect	199066	1	8	197489	202181	1	10	201730	2	721	202931	1	10	201730	206147	1	12	205970	3	2940	organic	correct	209112	1	13	208090	210679	1	14	210210	3	1748	212461	1	15	212329	mob_00760.png	mob_Kiwi.png	mob_Igel.png	ok
68227	06/23/2021 13:12:59	1	2	182650	215910	1	16	214450	219392	1	18	218690	2	1017	inorganic	correct	220442	1	18	218690	223374	1	20	222930	4	989	224407	1	20	222930	227340	1	22	227170	2	599	inorganic	correct	227989	1	22	227170	232171	1	24	231410	4	1250	233454	1	24	231410	fap_16329.png	fap_Knopf.png	fap_Kissen.png	ok
68227	06/23/2021 13:13:20	1	3	182650	236337	1	26	235649	239869	1	27	237769	3	763	organic	correct	240668	1	28	239890	244151	1	29	242010	3	732	244916	6	30	244129	248666	1	32	248370	3	2230	organic	correct	250932	1	33	250490	253497	1	34	252609	4	441	253964	1	34	252609	for_15187.png	for_Seehund.png	for_Mandel.png	ok
68227	06/23/2021 13:13:42	1	4	182650	256863	1	35	254730	258612	1	36	256850	2	825	organic	incorrect	259462	1	37	258969	263811	1	39	263210	2	950	264794	1	39	263210	269109	1	41	267449	3	982	organic	correct	270125	1	42	269569	274157	1	44	273809	4	668	274874	1	44	273809	foq_16799.png	foq_Pinguin.png	foq_Fenchel.png	ok
68227	06/23/2021 13:14:04	1	5	182650	279056	1	46	278049	282321	1	48	282289	2	439	inorganic	correct	282788	1	48	282289	286453	1	49	284409	4	418	286903	1	50	286531	291101	1	52	290769	3	1016	inorganic	correct	292151	1	52	290769	296233	1	54	295010	4	1086	297349	1	55	297130	mas_41366.png	mas_Tisch.png	mas_Bueroklammer.png	ok
68227	06/23/2021 13:14:23	1	6	182650	300882	1	56	299249	302848	1	57	301369	3	855	organic	correct	303731	1	58	303490	306830	1	59	305609	3	422	307279	1	59	305609	310845	1	61	309849	3	1333	organic	correct	312211	1	62	311970	314710	1	63	314089	4	1145	315893	1	63	314089	mog_03090.png	mog_Fledermaus.png	mog_Pilz.png	ok
68227	06/23/2021 13:14:45	1	7	182650	319808	1	65	318329	323224	1	67	322569	3	769	organic	correct	324040	1	67	322569	327506	1	69	326809	4	1480	329022	1	70	328929	332438	1	71	331050	3	1134	organic	correct	333604	1	72	333169	337186	1	73	335290	4	1034	338252	1	74	337410	moj_11821.png	moj_Blatt.png	moj_Walnuss.png	ok
68227	06/23/2021 13:15:07	1	8	182650	342318	1	76	341649	345300	1	77	343770	2	951	inorganic	correct	346283	1	78	345889	348949	1	79	348010	2	1554	350531	1	80	350130	353830	1	81	352250	2	1297	inorganic	correct	355163	1	82	354370	359395	1	84	358609	4	401	359828	1	84	358609	faj_07783.png	faj_Schuh.png	faj_Parfuem.png	ok
68227	06/23/2021 13:15:27	1	9	182650	364443	1	86	362850	366293	1	87	364970	3	573	inorganic	incorrect	366893	1	87	364970	370008	1	89	369210	2	1021	371075	1	89	369210	374690	1	91	373450	2	2030	inorganic	correct	376773	1	92	375570	379822	1	93	377690	2	1036	380888	1	94	379810	fax_14883.png	fax_Fahrrad.png	fax_Klebeband.png	ok
68227	06/23/2021 13:15:48	1	10	182650	384370	1	96	384050	386936	1	97	386170	3	1060	inorganic	incorrect	388019	1	97	386170	391584	1	99	390409	2	849	392467	1	99	390409	395633	1	101	394650	2	1287	inorganic	correct	396949	1	102	396769	401114	1	104	401010	4	396	401548	1	104	401010	mae_01010.png	mae_Schach.png	mae_Taschenrechner.png	ok
68227	06/23/2021 13:16:09	1	11	182650	405646	1	106	405249	409195	1	107	407369	2	1493	inorganic	correct	410711	1	108	409490	413260	1	109	411610	4	296	413594	1	109	411610	417726	1	111	415849	3	1531	inorganic	correct	419292	1	112	417970	422141	1	113	420089	4	1855	424040	1	114	422209	mat_23275.png	mat_Feuerzeug.png	mat_Helm.png	ok
68227	06/23/2021 13:16:27	1	12	182650	426223	1	115	424330	428372	1	116	426450	3	704	inorganic	incorrect	429105	1	117	428569	431904	1	118	430689	2	715	432654	1	118	430689	436169	1	120	434930	2	2878	inorganic	incorrect	439068	1	121	437049	440984	1	122	439169	2	1236	442251	1	123	441290	fai_07494.png	fai_Kommode.png	fai_Foehn.png	ok
68227	06/23/2021 13:16:48	1	13	182650	444433	1	124	443409	447282	1	125	445529	3	1184	inorganic	incorrect	448499	1	126	447649	450814	1	127	449770	3	1249	452097	1	128	451889	455829	1	129	454009	0	0	inorganic	incorrect	455829	1	131	458249	460644	1	132	460369	2	1356	462027	1	132	460369	maw_04767.png	maw_Schlauchboot.png	maw_Pingpongschlaeger.png	ok
68227	06/23/2021 13:17:07	1	14	182650	464843	1	134	464610	466859	1	135	466729	2	1012	inorganic	correct	467909	1	135	466729	471624	1	137	470969	4	1172	472840	1	137	470969	475073	1	138	473090	2	889	inorganic	correct	475989	1	139	475209	478705	1	140	477329	4	1204	479938	1	141	479449	fac_02146.png	fac_Ohrring.png	fac_Haarbuerste.png	ok
68227	06/23/2021 13:17:27	1	15	182650	483970	1	143	483689	487019	1	144	485809	3	319	inorganic	incorrect	487369	1	144	485809	491267	1	146	490049	2	344	491634	1	146	490049	495649	1	148	494289	3	2334	inorganic	correct	498015	1	149	496409	499498	1	150	498529	4	1219	500748	1	151	500649	faw_14215.png	faw_Hufeisen.png	faw_Kuechenmaschine.png	ok
68227	06/23/2021 13:17:49	1	16	182650	503963	1	152	502769	507062	1	154	507009	3	380	inorganic	incorrect	507479	1	154	507009	512360	1	156	511249	2	1564	513960	1	157	513369	516609	1	158	515489	3	1627	inorganic	correct	518258	1	159	517609	520874	1	160	519729	4	486	521407	1	160	519729	fab_06018.png	fab_Kinderwagen.png	fab_Staubsauger.png	ok
68227	06/23/2021 13:18:10	1	17	182650	526206	1	163	526089	529155	1	164	528208	3	291	organic	correct	529471	1	164	528208	533670	1	166	532449	2	293	533986	1	166	532449	537235	1	168	536688	2	2196	organic	correct	539451	1	169	538809	542134	1	170	540929	4	1536	543700	1	171	543048	foa_00207.png	foa_Aubergine.png	foa_Marienkaefer.png	ok
68227	06/23/2021 13:18:31	1	18	182650	546849	1	172	545168	549631	1	174	549409	3	1968	organic	correct	551630	1	175	551528	554596	1	176	553649	4	2738	557362	1	177	555769	559245	1	178	557889	3	1188	organic	correct	560461	1	179	560008	563460	1	180	562129	4	578	564060	1	180	562129	fou_17118.png	fou_Schmetterling.png	fou_Feige.png	ok
68227	06/23/2021 13:18:51	1	19	182650	568741	1	183	568488	570741	1	184	570609	3	2649	organic	correct	573440	1	185	572729	574306	1	185	572729	2	715	575056	1	186	574848	578838	1	187	576968	3	2640	organic	correct	581504	1	189	581208	584219	1	190	583328	4	443	584686	1	190	583328	foi_03389.png	foi_Apfelkuchen.png	foi_Pflanze.png	ok
68227	06/23/2021 13:19:11	1	20	182650	588585	1	192	587569	590667	1	193	589688	3	2183	organic	correct	592883	1	194	591808	595199	1	195	593928	3	1220	596449	1	196	596049	599948	1	197	598168	2	2830	organic	miss	602813	1	199	602409	604313	1	199	602409	2	1235	605579	1	200	604528	moh_06446.png	moh_Birne.png	moh_Muecke.png	ok
68227	06/23/2021 13:19:32	1	21	182650	608178	1	201	606648	610994	1	203	610889	3	1042	organic	correct	612060	1	203	610889	614909	1	204	613008	2	674	615609	1	205	615128	619991	1	207	619369	0	0	organic	miss	619991	1	208	621488	623906	1	209	623608	2	2032	625972	1	210	625728	mof_02408.png	mof_Hahn.png	mof_Spaghetti.png	ok
68227	06/23/2021 13:19:51	1	22	182650	629088	1	211	627848	632220	1	213	632088	2	1100	inorganic	correct	633353	1	213	632088	635602	1	214	634208	2	650	636285	1	214	634208	640234	1	216	638448	2	1640	inorganic	correct	641900	1	217	640568	644199	1	218	642688	4	753	644982	1	219	644808	mal_04470.png	mal_Kugelschreiber.png	mal_Drucker.png	ok
68227	06/23/2021 13:20:12	1	23	182650	648381	1	220	646928	650131	1	221	649048	2	2646	inorganic	correct	652813	1	222	651168	654296	1	223	653288	3	815	655146	1	223	653288	659011	1	225	657528	3	1749	inorganic	correct	660794	1	226	659648	664393	1	228	663888	4	629	665059	1	228	663888	map_41499.png	map_Pfeife.png	map_Globus.png	ok
68227	06/23/2021 13:20:31	1	24	182650	669674	1	230	668128	671757	1	231	670248	3	1492	inorganic	incorrect	673273	1	232	672368	675622	1	233	674487	3	1145	676805	1	234	676608	679704	1	235	678728	3	2243	inorganic	correct	681970	1	236	680848	683686	1	237	682968	3	391	684103	1	237	682968	fal_07906.png	fal_Buegeleisen.png	fal_Korb.png	ok
68227	06/23/2021 13:20:50	1	25	182650	687818	1	239	687208	690617	1	240	689327	3	2284	organic	correct	692933	1	241	691448	695016	1	242	693568	3	1159	696198	1	243	695688	699331	1	244	697807	2	2227	organic	miss	701580	1	245	699928	703296	1	246	702048	4	2444	705779	1	247	704168	fot_00797.png	fot_Salat.png	fot_Taube.png	ok
68227	06/23/2021 13:21:09	1	26	182650	707628	1	248	706287	710577	1	250	710528	2	1640	organic	incorrect	712243	1	250	710528	714376	1	251	712647	2	676	715075	1	252	714767	718124	1	253	716888	2	2605	organic	correct	720774	1	254	719008	722106	1	255	721127	0	0	722106	1	256	723247	foj_08220.png	foj_Rose.png	foj_Waffel.png	ok
68227	06/23/2021 13:21:32	1	27	182650	726705	1	257	725368	729804	1	259	729607	2	1770	organic	incorrect	731603	1	259	729607	734436	1	261	733848	2	2121	736585	1	262	735967	739584	1	263	738087	3	2313	organic	incorrect	741916	1	264	740208	744382	1	265	742328	4	1653	746065	1	266	744447	mou_01862.png	mou_Croissant.png	mou_Kraehe.png	ok
68227	06/23/2021 13:21:53	1	28	182650	748814	1	268	748688	751780	1	269	750807	3	1744	inorganic	incorrect	753546	1	270	752927	756628	1	271	755047	2	2279	758944	1	272	757168	760993	1	273	759287	2	2252	inorganic	incorrect	763276	1	274	761407	765225	1	275	763527	2	2298	767574	1	276	765647	mac_59169.png	mac_Medaille.png	mac_Dartpfeil.png	ok
68227	06/23/2021 13:22:12	1	29	182650	770074	1	278	769887	771706	1	278	769887	3	2554	inorganic	incorrect	774289	1	280	774127	775672	1	280	774127	2	289	775988	1	280	774127	780204	1	282	778367	2	1229	inorganic	correct	781453	1	283	780488	783819	1	284	782607	4	568	784419	1	284	782607	mai_06530.png	mai_Auto.png	mai_Gewehr.png	ok
68227	06/23/2021 13:22:32	1	30	182650	788917	1	286	786847	790733	1	287	788967	3	1419	organic	correct	792183	1	288	791087	795982	1	290	795327	4	408	796415	1	290	795327	800680	1	292	799567	3	1311	organic	correct	802013	1	293	801687	804479	1	294	803807	4	575	805078	1	294	803807	mos_20953.png	mos_Eintagsfliege.png	mos_Traube.png	ok
68227	06/23/2021 13:22:52	1	31	182650	809060	1	296	808047	811093	1	297	810167	2	961	inorganic	correct	812076	1	297	810167	814975	1	299	814407	4	299	815325	1	299	814407	820223	1	301	818647	3	830	inorganic	correct	821106	1	302	820767	824805	1	303	822887	4	833	825672	1	304	825007	maj_01545.png	maj_Krawatte.png	maj_Computermaus.png	ok
68227	06/23/2021 13:23:11	1	32	182650	829704	1	306	829247	831653	1	307	831367	2	1462	inorganic	correct	833152	1	307	831367	836118	1	309	835606	2	383	836535	1	309	835606	839950	1	311	839847	2	1740	inorganic	correct	841716	1	311	839847	844698	1	313	844086	4	574	845298	1	313	844086	mao_11634.png	mao_Stempel.png	mao_Kegel.png	ok
68227	06/23/2021 13:23:29	1	33	182650	848314	1	314	846207	850913	1	316	850446	3	1694	inorganic	incorrect	852629	1	317	852566	854295	1	317	852566	2	848	855178	1	318	854687	857677	1	319	856807	2	2279	inorganic	correct	859993	1	320	858926	862376	1	321	861047	2	923	863326	1	322	863167	fat_12032.png	fat_Einkaufswagen.png	fat_Kleiderbuegel.png	ok
68227	06/23/2021 13:23:50	1	34	182650	866058	1	323	865287	869607	1	325	869527	2	314	inorganic	correct	869973	1	325	869527	874888	1	327	873766	2	710	875621	1	327	873766	878437	1	329	878007	3	1895	inorganic	correct	880353	1	330	880127	882552	1	331	882246	4	1225	883802	1	331	882246	fag_06539.png	fag_Portemonnaie.png	fag_Geschenk.png	ok
68227	06/23/2021 13:24:12	1	35	182650	887051	1	333	886487	890017	1	334	888606	3	1122	organic	correct	891166	1	335	890726	894815	1	336	892846	4	333	895181	1	337	894967	900146	1	339	899206	3	729	organic	correct	900896	1	339	899206	903895	1	341	903447	4	1364	905295	1	341	903447	fop_00621.png	fop_Mango.png	fop_Koala.png	ok
68227	06/23/2021 13:24:32	1	36	182650	908927	1	343	907686	910776	1	344	909807	0	0	inorganic	miss	910776	1	345	911926	915408	1	346	914046	2	984	916441	1	347	916166	920056	1	348	918287	2	1829	inorganic	correct	921906	1	349	920406	924555	1	350	922526	4	697	925288	1	351	924646	mak_00987.png	mak_Rucksack.png	mak_Socken.png	ok
68227	06/23/2021 13:24:52	1	37	182650	929637	1	353	928886	931902	1	354	931006	3	1311	organic	correct	933235	1	355	933126	936201	1	356	935246	4	544	936767	1	356	935246	940366	1	358	939486	2	1094	organic	correct	941483	1	358	939486	944815	1	360	943726	4	1005	945848	1	360	943726	mom_59361.png	mom_Loewe.png	mom_Ei.png	ok
68227	06/23/2021 13:25:12	1	38	182650	949330	1	362	947966	951246	1	363	950086	2	1186	inorganic	correct	952462	1	364	952206	955078	1	365	954326	4	505	955611	1	365	954326	959526	1	367	958566	3	1569	inorganic	correct	961126	1	368	960686	964941	1	369	962806	4	1716	966707	1	370	964925	mau_49693.png	mau_Leiter.png	mau_Wasserventil.png	ok
68227	06/23/2021 13:25:30	1	39	182650	969007	1	371	967046	972122	1	373	971286	2	2333	organic	incorrect	974488	1	374	973406	975821	1	375	975526	0	0	975821	1	376	977646	979303	1	376	977646	3	1154	organic	correct	980486	1	377	979766	983585	1	378	981885	4	604	984218	1	379	984006	moe_02012.png	moe_Waschbaer.png	moe_Pommes.png	ok
68227	06/23/2021 13:25:51	1	40	182650	987317	1	380	986126	990866	1	382	990365	2	2223	organic	incorrect	993115	1	383	992486	995798	1	384	994606	2	784	996614	1	384	994606	1000363	1	386	998846	2	1329	organic	correct	1001712	1	387	1000966	1004361	1	388	1003086	4	852	1005244	1	389	1005205	fok_09378.png	fok_Kaenguruh.png	fok_Palme.png	ok
68227	06/23/2021 13:26:10	1	41	182650	1008277	1	390	1007327	1010693	1	391	1009446	0	0	organic	miss	1010693	1	392	1011565	1014341	1	393	1013685	2	2191	1016574	1	394	1015806	1018190	1	395	1017927	2	1461	organic	correct	1019673	1	395	1017927	1022322	1	397	1022166	4	412	1022772	1	397	1022166	mon_65798.png	mon_Kartoffel.png	mon_Fuchs.png	ok
68227	06/23/2021 13:26:31	1	42	182650	1027120	1	399	1026407	1029736	1	400	1028526	2	2431	organic	incorrect	1032202	1	401	1030646	1034368	1	402	1032766	3	378	1034768	1	402	1032766	1038400	1	404	1037005	3	1824	organic	correct	1040249	1	405	1039126	1043698	1	407	1043365	4	807	1044531	1	407	1043365	foc_02157.png	foc_Eule.png	foc_Brombeere.png	ok
68227	06/23/2021 13:26:51	1	43	182650	1048597	1	409	1047607	1051729	1	410	1049726	3	2256	organic	correct	1054011	1	412	1053966	1055361	1	412	1053966	2	824	1056211	1	413	1056087	1059759	1	414	1058206	0	0	organic	miss	1059759	1	416	1062446	1064075	1	416	1062446	2	713	1064841	1	417	1064567	foe_08236.png	foe_Tannenzapfen.png	foe_Adler.png	ok
68227	06/23/2021 13:27:10	1	44	182650	1068173	1	418	1066686	1070189	1	419	1068806	2	1252	inorganic	correct	1071472	1	420	1070926	1075138	1	421	1073046	2	849	1076021	1	422	1075166	1078603	1	423	1077286	0	0	inorganic	miss	1078603	1	425	1081526	1082468	1	425	1081526	2	836	1083335	1	425	1081526	fan_17286.png	fan_Lampe.png	fan_Klavier.png	ok
68227	06/23/2021 13:27:29	1	45	182650	1087017	1	427	1085766	1090199	1	429	1090006	2	2345	organic	incorrect	1092582	1	430	1092126	1093831	1	430	1092126	2	833	1094698	1	431	1094246	1098546	1	433	1098486	3	1963	organic	incorrect	1100529	1	433	1098486	1102545	1	434	1100606	2	293	1102862	1	435	1102726	fov_15046.png	fov_Zucchini.png	fov_Fisch.png	ok
68227	06/23/2021 13:27:48	1	46	182650	1105994	1	436	1104846	1108793	1	437	1106966	2	1793	organic	incorrect	1110626	1	438	1109086	1112875	1	439	1111205	3	1314	1114241	1	440	1113326	1117040	1	441	1115446	2	1721	organic	incorrect	1118790	1	442	1117566	1121822	1	443	1119686	3	515	1122372	1	444	1121806	mol_07679.png	mol_Pizza.png	mol_Schimpanse.png	ok
68227	06/23/2021 13:28:09	1	47	182650	1125204	1	445	1123926	1128270	1	447	1128166	2	2518	inorganic	correct	1130819	1	448	1130286	1133135	1	449	1132406	2	629	1133801	1	449	1132406	1137733	1	451	1136646	3	1606	inorganic	correct	1139366	1	452	1138766	1142282	1	453	1140886	4	462	1142765	1	453	1140886	far_00736.png	far_Giesskanne.png	far_Heissluftballon.png	ok
68227	06/23/2021 13:28:26	1	48	182650	1146064	1	455	1145126	1147913	1	456	1147246	2	2202	organic	incorrect	1150146	1	457	1149366	1151628	1	458	1151485	2	637	1152295	1	458	1151485	1154961	1	459	1153606	2	851	organic	correct	1155844	1	460	1155726	1159359	1	461	1157845	4	713	1160126	1	462	1159965	mot_69374.png	mot_Bison.png	mot_Hotdog.png	ok
68227	06/23/2021 13:28:43	1	49	182650	1162941	1	463	1162086	1164907	1	464	1164206	3	344	organic	correct	1165291	1	464	1164206	1168356	1	465	1166325	4	998	1169389	1	466	1168446	1172255	1	467	1170566	3	1909	organic	correct	1174188	1	468	1172685	1176204	1	469	1174805	3	2141	1178369	1	470	1176926	mob_22833.png	mob_Igel.png	mob_Kiwi.png	ok
68227	06/23/2021 13:29:01	1	50	182650	1180485	1	471	1179046	1182385	1	472	1181165	0	0	organic	miss	1182385	1	473	1183285	1186550	1	474	1185406	0	0	1186550	1	475	1187526	1190415	1	476	1189645	3	1762	organic	miss	1192198	1	477	1191765	1194564	1	478	1193886	3	938	1195530	1	478	1193886	foq_17341.png	foq_Fenchel.png	foq_Pinguin.png	ok
68227	06/23/2021 13:29:23	1	51	182650	1198080	1	479	1196005	1201578	1	481	1200245	2	246	inorganic	correct	1201862	1	481	1200245	1205394	1	483	1204485	4	1396	1206827	1	484	1206605	1210042	1	485	1208726	2	590	inorganic	correct	1210675	1	485	1208726	1215540	1	488	1215085	4	864	1216440	1	488	1215085	fap_17119.png	fap_Kissen.png	fap_Knopf.png	ok
68227	06/23/2021 13:29:43	1	52	182650	1220672	1	490	1219325	1222638	1	491	1221445	2	1962	organic	incorrect	1224637	1	492	1223565	1226170	1	493	1225686	2	505	1226703	1	493	1225686	1230102	1	495	1229925	2	1844	organic	incorrect	1231968	1	495	1229925	1235150	1	497	1234165	2	922	1236100	1	497	1234165	for_15880.png	for_Mandel.png	for_Seehund.png	ok
68227	06/23/2021 13:30:04	1	53	182650	1239849	1	499	1238405	1243248	1	501	1242645	2	732	inorganic	correct	1244014	1	501	1242645	1246680	1	502	1244765	4	1363	1248079	1	503	1246885	1250579	1	504	1249005	2	996	inorganic	correct	1251595	1	505	1251125	1255960	1	507	1255365	4	683	1256676	1	507	1255365	mas_41937.png	mas_Bueroklammer.png	mas_Tisch.png	ok
68227	06/23/2021 13:30:25	1	54	182650	1260825	1	509	1259605	1263707	1	510	1261725	3	1053	organic	correct	1264807	1	511	1263845	1268489	1	513	1268085	2	765	1269289	1	513	1268085	1273454	1	515	1272324	2	577	organic	correct	1274054	1	515	1272324	1278053	1	517	1276565	4	1707	1279785	1	518	1278685	mog_03277.png	mog_Pilz.png	mog_Fledermaus.png	ok
68227	06/23/2021 13:30:45	1	55	182650	1282501	1	519	1280804	1285084	1	521	1285045	3	308	organic	correct	1285417	1	521	1285045	1289149	1	522	1287165	3	874	1290049	1	523	1289284	1293814	1	525	1293525	3	2173	organic	correct	1296013	1	526	1295644	1298096	1	527	1297765	4	511	1298629	1	527	1297765	moj_11860.png	moj_Walnuss.png	moj_Blatt.png	ok
68227	06/23/2021 13:31:06	1	56	182650	1302728	1	529	1302005	1305943	1	530	1304124	3	2344	inorganic	incorrect	1308326	1	531	1306245	1310775	1	533	1310484	2	773	1311591	1	533	1310484	1315457	1	535	1314725	3	1701	inorganic	correct	1317189	1	536	1316845	1319555	1	537	1318964	4	1391	1320971	1	537	1318964	faj_07849.png	faj_Parfuem.png	faj_Schuh.png	ok
68227	06/23/2021 13:31:26	1	57	182650	1323004	1	538	1321084	1325970	1	540	1325325	3	1367	inorganic	incorrect	1327369	1	540	1325325	1329535	1	541	1327444	2	2001	1331568	1	542	1329564	1333384	1	543	1331685	2	2882	inorganic	correct	1336300	1	545	1335924	1338349	1	546	1338045	2	924	1339299	1	546	1338045	fax_15310.png	fax_Klebeband.png	fax_Fahrrad.png	ok
68227	06/23/2021 13:31:46	1	58	182650	1343681	1	548	1342284	1346080	1	549	1344404	2	2048	inorganic	correct	1348162	1	550	1346525	1351378	1	552	1350764	3	1033	1352444	1	552	1350764	1355926	1	554	1355005	2	1058	inorganic	correct	1357026	1	554	1355005	1359975	1	556	1359244	4	1490	1361508	1	557	1361364	mae_36426.png	mae_Taschenrechner.png	mae_Schach.png	ok
68227	06/23/2021 13:32:09	1	59	182650	1363424	1	557	1361364	1365623	1	558	1363485	2	1896	inorganic	correct	1367556	1	559	1365604	1370238	1	561	1369844	2	697	1370971	1	561	1369844	1375420	1	563	1374084	3	2067	inorganic	correct	1377519	1	564	1376204	1380685	1	566	1380444	4	1146	1381868	1	566	1380444	fai_07637.png	fai_Foehn.png	fai_Kommode.png	ok
68227	06/23/2021 13:32:27	1	60	182650	1385800	1	568	1384684	1388982	1	570	1388924	3	885	inorganic	incorrect	1389898	1	570	1388924	1393580	1	572	1393164	2	2256	1395863	1	573	1395284	1397196	1	573	1395284	2	1012	inorganic	correct	1398229	1	574	1397404	1400911	1	575	1399524	4	1553	1402494	1	576	1401644	mat_23754.png	mat_Helm.png	mat_Feuerzeug.png	ok
68227	06/23/2021 13:32:46	1	61	182650	1404743	1	577	1403764	1406726	1	578	1405884	3	1259	inorganic	incorrect	1408026	1	578	1405884	1411474	1	580	1410124	2	862	1412391	1	581	1412244	1415573	1	582	1414364	2	1062	inorganic	correct	1416656	1	583	1416484	1419822	1	584	1418604	4	360	1420205	1	584	1418604	fac_02970.png	fac_Haarbuerste.png	fac_Ohrring.png	ok
68227	06/23/2021 13:33:04	1	62	182650	1423404	1	586	1422844	1426019	1	587	1424964	0	0	inorganic	miss	1426019	1	588	1427084	1429635	1	589	1429204	2	860	1430518	1	589	1429204	1433184	1	590	1431324	3	1761	inorganic	correct	1434966	1	591	1433443	1437116	1	592	1435564	4	890	1438032	1	593	1437684	maw_22459.png	maw_Pingpongschlaeger.png	maw_Schlauchboot.png	ok
68227	06/23/2021 13:33:22	1	63	182650	1441148	1	594	1439804	1443447	1	595	1441923	2	1564	inorganic	correct	1445046	1	596	1444044	1447462	1	597	1446164	2	1950	1449445	1	598	1448284	1451278	1	599	1450403	2	1484	inorganic	correct	1452794	1	600	1452524	1455276	1	601	1454644	4	336	1455660	1	601	1454644	fab_06286.png	fab_Staubsauger.png	fab_Kinderwagen.png	ok
68227	06/23/2021 13:33:42	1	64	182650	1459475	1	603	1458884	1462740	1	604	1461004	3	1040	inorganic	incorrect	1463807	1	605	1463124	1466489	1	606	1465243	2	975	1467489	1	607	1467364	1470638	1	608	1469484	2	1319	inorganic	correct	1471987	1	609	1471603	1474736	1	610	1473723	4	357	1475120	1	610	1473723	faw_14685.png	faw_Kuechenmaschine.png	faw_Hufeisen.png	ok
68227	06/23/2021 13:34:02	1	65	182650	1478985	1	612	1477964	1480701	1	613	1480083	3	1507	organic	correct	1482234	1	614	1482203	1485499	1	615	1484324	4	1237	1486766	1	616	1486444	1489965	1	617	1488563	2	2537	organic	correct	1492530	1	618	1490683	1494846	1	619	1492804	4	809	1495679	1	620	1494923	moh_07125.png	moh_Muecke.png	moh_Birne.png	ok
68227	06/23/2021 13:34:25	1	66	182650	1499378	1	622	1499163	1502794	1	623	1501284	3	239	organic	correct	1503060	1	623	1501284	1507659	1	625	1505523	3	385	1508092	1	626	1507644	1512757	1	627	1511883	3	2124	organic	miss	1514906	1	628	1514003	1516672	1	629	1516124	4	867	1517572	1	629	1516124	foa_00426.png	foa_Marienkaefer.png	foa_Aubergine.png	ok
68227	06/23/2021 13:34:44	1	67	182650	1521971	1	631	1520363	1524070	1	632	1522483	3	2365	organic	correct	1526469	1	633	1524604	1527619	1	634	1526723	2	841	1528485	1	634	1526723	1532250	1	636	1530963	2	838	organic	correct	1533117	1	637	1533083	1537032	1	638	1535203	4	402	1537465	1	639	1537323	fou_18966.png	fou_Feige.png	fou_Schmetterling.png	ok
68227	06/23/2021 13:35:03	1	68	182650	1541414	1	640	1539443	1543313	1	641	1541563	2	1646	organic	incorrect	1544996	1	642	1543683	1547029	1	643	1545803	2	2257	1549311	1	644	1547924	1551277	1	645	1550043	2	1958	organic	correct	1553260	1	646	1552163	1554893	1	647	1554283	2	1270	1556209	1	647	1554283	foi_05187.png	foi_Pflanze.png	foi_Apfelkuchen.png	ok
68227	06/23/2021 13:35:23	1	69	182650	1560008	1	649	1558523	1561824	1	650	1560643	0	0	inorganic	miss	1561824	1	651	1562763	1567055	1	653	1567003	2	808	1567888	1	653	1567003	1570954	1	654	1569123	2	861	inorganic	correct	1571837	1	655	1571242	1575403	1	656	1573363	2	751	1576186	1	657	1575483	mal_20552.png	mal_Drucker.png	mal_Kugelschreiber.png	ok
68227	06/23/2021 13:35:42	1	70	182650	1580268	1	659	1579722	1582400	1	660	1581843	3	974	inorganic	incorrect	1583400	1	660	1581843	1586132	1	662	1586083	3	884	1587049	1	662	1586083	1589814	1	663	1588202	3	1224	inorganic	correct	1591064	1	664	1590323	1594496	1	665	1592443	2	855	1595379	1	666	1594562	fal_07977.png	fal_Korb.png	fal_Buegeleisen.png	ok
68227	06/23/2021 13:36:05	1	71	182650	1599744	1	668	1598803	1602893	1	669	1600923	2	141	organic	incorrect	1603060	1	669	1600923	1608092	1	672	1607283	2	394	1608525	1	672	1607283	1612373	1	674	1611522	3	2137	organic	correct	1614539	1	675	1613643	1617288	1	676	1615763	2	332	1617655	1	676	1615763	mof_06901.png	mof_Spaghetti.png	mof_Hahn.png	ok
68227	06/23/2021 13:36:27	1	72	182650	1622570	1	679	1622123	1626019	1	680	1624243	3	148	inorganic	incorrect	1626202	1	680	1624243	1630151	1	682	1628482	3	942	1631117	1	683	1630603	1634516	1	684	1632722	3	961	inorganic	correct	1635499	1	685	1634842	1639498	1	687	1639083	4	963	1640497	1	687	1639083	map_49576.png	map_Globus.png	map_Pfeife.png	ok
68227	06/23/2021 13:36:50	1	73	182650	1644296	1	689	1643322	1647345	1	690	1645443	2	2551	inorganic	correct	1649927	1	692	1649682	1651943	1	693	1651802	2	768	1652743	1	693	1651802	1656742	1	695	1656042	2	2225	inorganic	miss	1659008	1	696	1658162	1661873	1	697	1660282	2	1058	1662956	1	698	1662403	mac_59752.png	mac_Dartpfeil.png	mac_Medaille.png	ok
68227	06/23/2021 13:37:12	1	74	182650	1666805	1	700	1666642	1669637	1	701	1668762	3	1475	organic	correct	1671137	1	702	1670882	1673969	1	703	1673002	2	882	1674886	1	703	1673002	1678868	1	705	1677243	2	1915	organic	correct	1680817	1	706	1679362	1683816	1	708	1683602	3	363	1684216	1	708	1683602	foj_08937.png	foj_Waffel.png	foj_Rose.png	ok
68227	06/23/2021 13:37:32	1	75	182650	1688964	1	710	1687842	1691647	1	711	1689962	3	942	organic	correct	1692613	1	712	1692082	1695962	1	713	1694202	2	985	1696978	1	714	1696322	1701060	1	716	1700562	3	1548	organic	correct	1702660	1	716	1700562	1705176	1	718	1704802	4	1414	1706642	1	718	1704802	mou_06524.png	mou_Kraehe.png	mou_Croissant.png	ok
68227	06/23/2021 13:37:50	1	76	182650	1709041	1	719	1706922	1711690	1	721	1711162	2	438	organic	incorrect	1712156	1	721	1711162	1715039	1	722	1713282	3	1181	1716255	1	723	1715402	1719837	1	725	1719642	3	2170	organic	incorrect	1722036	1	726	1721762	1723419	1	726	1721762	3	2466	1725919	1	727	1723882	fot_06092.png	fot_Taube.png	fot_Salat.png	ok
68227	06/23/2021 13:38:07	1	77	182650	1727251	1	728	1726002	1728918	1	729	1728122	2	1393	inorganic	correct	1730334	1	730	1730242	1732633	1	731	1732361	4	408	1733066	1	731	1732361	1736232	1	732	1734483	2	765	inorganic	correct	1737031	1	733	1736602	1740397	1	734	1738723	4	1275	1741697	1	735	1740841	mai_23761.png	mai_Gewehr.png	mai_Auto.png	ok
68227	06/23/2021 13:38:25	1	78	182650	1744596	1	736	1742963	1747411	1	738	1747203	3	1253	organic	correct	1748694	1	738	1747203	1750943	1	739	1749322	2	1955	1752943	1	740	1751443	1755325	1	741	1753563	2	1803	organic	correct	1757175	1	742	1755682	1759007	1	743	1757802	4	1887	1760923	1	744	1759923	mos_23223.png	mos_Traube.png	mos_Eintagsfliege.png	ok
68227	06/23/2021 13:38:47	1	79	182650	1762706	1	745	1762043	1765755	1	746	1764162	3	421	inorganic	incorrect	1766205	1	746	1764162	1770787	1	749	1770523	2	983	1771803	1	749	1770523	1774252	1	750	1772642	3	1681	inorganic	correct	1775968	1	751	1774763	1779017	1	752	1776883	4	284	1779334	1	753	1779002	maj_01546.png	maj_Computermaus.png	maj_Krawatte.png	ok
68227	06/23/2021 13:39:07	1	80	182650	1784016	1	755	1783243	1786032	1	756	1785363	3	898	inorganic	incorrect	1786965	1	756	1785363	1789914	1	758	1789602	2	347	1790297	1	758	1789602	1794962	1	760	1793842	3	1181	inorganic	correct	1796178	1	761	1795962	1799627	1	762	1798082	4	410	1800060	1	762	1798082	mao_19000.png	mao_Kegel.png	mao_Stempel.png	ok
68227	06/23/2021 13:39:27	1	81	182650	1804342	1	764	1802322	1806475	1	765	1804442	2	621	inorganic	correct	1807141	1	766	1806563	1811290	1	768	1810802	4	722	1812040	1	768	1810802	1815488	1	770	1815043	2	653	inorganic	correct	1816171	1	770	1815043	1820403	1	772	1819282	4	653	1821086	1	772	1819282	mak_03979.png	mak_Socken.png	mak_Rucksack.png	ok
68227	06/23/2021 13:39:50	1	82	182650	1824419	1	774	1823523	1826385	1	775	1825642	2	1760	organic	incorrect	1828167	1	776	1827762	1831366	1	777	1829882	3	1555	1832949	1	778	1832002	1836681	1	780	1836242	3	1434	organic	correct	1838147	1	780	1836242	1841596	1	782	1840482	4	364	1841996	1	782	1840482	fop_07937.png	fop_Koala.png	fop_Mango.png	ok
68227	06/23/2021 13:40:07	1	83	182650	1846844	1	784	1844722	1848777	1	785	1846843	2	626	inorganic	correct	1849427	1	786	1848962	1852526	1	787	1851082	4	916	1853492	1	788	1853202	1856041	1	789	1855322	3	1001	inorganic	correct	1857091	1	789	1855322	1859907	1	791	1859562	4	772	1860706	1	791	1859562	fag_06551.png	fag_Geschenk.png	fag_Portemonnaie.png	ok
68227	06/23/2021 13:40:26	1	84	182650	1864105	1	793	1863802	1866555	1	794	1865922	2	298	inorganic	correct	1866888	1	794	1865922	1871270	1	796	1870161	2	538	1871836	1	796	1870161	1875685	1	798	1874402	2	1370	inorganic	correct	1877084	1	799	1876522	1879650	1	800	1878641	4	995	1880683	1	800	1878641	fat_14140.png	fat_Kleiderbuegel.png	fat_Einkaufswagen.png	ok
68227	06/23/2021 13:40:45	1	85	182650	1883649	1	802	1882882	1886348	1	803	1885002	3	1190	organic	correct	1887564	1	804	1887122	1889913	1	805	1889242	2	819	1890763	1	805	1889242	1893296	1	806	1891362	2	1119	organic	correct	1894445	1	807	1893481	1898244	1	809	1897722	4	45	1898327	1	809	1897722	moe_23630.png	moe_Pommes.png	moe_Waschbaer.png	ok
68227	06/23/2021 13:41:04	1	86	182650	1901859	1	810	1899842	1903825	1	811	1901961	3	221	organic	correct	1904092	1	811	1901961	1907941	1	813	1906202	2	1634	1909607	1	814	1908322	1912906	1	816	1912562	3	2169	organic	miss	1915105	1	817	1914682	1918071	1	818	1916801	3	403	1918504	1	818	1916801	fok_09860.png	fok_Palme.png	fok_Kaenguruh.png	ok
68227	06/23/2021 13:41:24	1	87	182650	1921419	1	820	1921042	1924535	1	821	1923162	2	1011	inorganic	correct	1925568	1	822	1925281	1928117	1	823	1927401	2	808	1928950	1	823	1927401	1932849	1	825	1931641	3	1185	inorganic	correct	1934065	1	826	1933761	1936548	1	827	1935882	4	399	1936981	1	827	1935882	mau_58144.png	mau_Wasserventil.png	mau_Leiter.png	ok
68227	06/23/2021 13:41:45	1	88	182650	1940863	1	829	1940121	1944195	1	830	1942241	2	937	organic	incorrect	1945161	1	831	1944362	1948660	1	833	1948601	3	1360	1950060	1	833	1948601	1953325	1	835	1952842	2	1651	organic	correct	1955025	1	836	1954961	1958923	1	837	1957081	4	432	1959390	1	838	1959201	mom_59641.png	mom_Ei.png	mom_Loewe.png	ok
68227	06/23/2021 13:42:08	1	89	182650	1962456	1	839	1961322	1964821	1	840	1963441	3	2205	organic	correct	1967054	1	841	1965561	1969820	1	842	1967682	2	581	1970436	1	843	1969801	1974518	1	845	1974041	2	2986	organic	correct	1977534	1	846	1976162	1979866	1	847	1978281	2	1084	1980983	1	848	1980401	foe_08514.png	foe_Adler.png	foe_Tannenzapfen.png	ok
68227	06/23/2021 13:42:29	1	90	182650	1984948	1	850	1984642	1988180	1	851	1986761	3	368	organic	correct	1988580	1	851	1986761	1991596	1	853	1991001	4	1056	1992679	1	853	1991001	1996894	1	855	1995241	3	1089	organic	correct	1998010	1	856	1997361	2002342	1	858	2001601	4	2181	2004575	1	859	2003721	mon_69587.png	mon_Fuchs.png	mon_Kartoffel.png	ok
68227	06/23/2021 13:42:49	1	91	182650	2005924	1	860	2005841	2007840	1	860	2005841	3	1951	organic	correct	2009823	1	861	2007961	2012872	1	863	2012201	2	639	2013538	1	863	2012201	2016737	1	865	2016441	3	1903	organic	correct	2018670	1	866	2018561	2022285	1	867	2020681	4	805	2023118	1	868	2022801	foc_02664.png	foc_Brombeere.png	foc_Eule.png	ok
68227	06/23/2021 13:43:10	1	92	182650	2026434	1	869	2024921	2029266	1	871	2029161	2	2086	inorganic	correct	2031382	1	872	2031280	2033482	1	873	2033401	2	794	2034298	1	873	2033401	2037264	1	874	2035521	2	2320	inorganic	correct	2039613	1	875	2037641	2042845	1	877	2041881	2	238	2043112	1	877	2041881	fan_18894.png	fan_Klavier.png	fan_Lampe.png	ok
68227	06/23/2021 13:43:32	1	93	182650	2047310	1	879	2046121	2050892	1	881	2050361	2	1878	inorganic	correct	2052808	1	882	2052481	2055891	1	883	2054600	2	996	2056924	1	884	2056721	2059889	1	885	2058841	3	809	inorganic	correct	2060722	1	885	2058841	2065338	1	888	2065201	2	809	2066171	1	888	2065201	far_06518.png	far_Heissluftballon.png	far_Giesskanne.png	ok
68227	06/23/2021 13:43:52	1	94	182650	2069003	1	889	2067321	2072502	1	891	2071560	3	292	organic	correct	2072818	1	891	2071560	2076734	1	893	2075801	2	637	2077400	1	893	2075801	2081599	1	895	2080040	2	1590	organic	correct	2083215	1	896	2082161	2085431	1	897	2084281	4	1268	2086730	1	898	2086400	mot_69770.png	mot_Hotdog.png	mot_Bison.png	ok
68227	06/23/2021 13:44:14	1	95	182650	2088980	1	899	2088520	2092362	1	900	2090641	2	415	organic	incorrect	2092812	1	901	2092760	2096944	1	902	2094880	3	466	2097460	1	903	2097001	2101909	1	905	2101240	2	1228	organic	correct	2103175	1	905	2101240	2106440	1	907	2105481	4	449	2106924	1	907	2105481	fov_15193.png	fov_Fisch.png	fov_Zucchini.png	ok
68227	06/23/2021 13:44:32	1	96	182650	2111139	1	909	2109720	2113355	1	910	2111840	3	336	organic	correct	2113721	1	910	2111840	2117820	1	912	2116080	2	1081	2118936	1	913	2118200	2121619	1	914	2120320	3	2559	organic	correct	2124201	1	915	2122441	2126001	1	916	2124560	3	854	2126884	1	917	2126680	mol_11363.png	mol_Schimpanse.png	mol_Pizza.png	ok
