ID	DateTime	Run	Delayed_Retrieval_Trial	First_Pulse_Time	FaceRecog_OnsetTime	FaceRecog_OnsetTimeUncertainty	FaceRecog_fMRI_Pulse	FaceRecog_fMRI_PulseTime	Assoc_Retrieval_OnsetTime	Assoc_Retrieval_OnsetTimeUncertainty	Assoc_Retrieval_fMRI_Pulse	Assoc_Retrieval_fMRI_PulseTime	Assoc_Retrieval_Pressed_Button	Assoc_Retrieval_RT	Assoc_Retrieval_Response_Category	Assoc_Retrieval_Accuracy	Assoc_Retrieval_Feedback_OnsetTime	Assoc_Retrieval_Feedback_OnsetTimeUncertainty	Assoc_Retrieval_Feedback_fMRI_Pulse	Assoc_Retrieval_Feedback_fMRI_PulseTime	Retrieval_consc_Rating_OnsetTime	Retrieval_consc_Rating_OnsetTimeUncertainty	Retrieval_consc_Rating_fMRI_Pulse	Retrieval_consc_Rating_fMRI_PulseTime	Retrieval_consc_Rating_Pressed_Button	Retrieval_consc_Rating_RT	Retrieval_consc_Rating_Feedback_OnsetTime	Retrieval_consc_Rating_Feedback_OnsetTimeUncertainty	Retrieval_consc_Rating_Feedback_fMRI_Pulse	Retrieval_consc_Rating_Feedback_fMRI_PulseTime	ForcedChoice_OnsetTime	ForcedChoice_OnsetTimeUncertainty	ForcedChoice_fMRI_Pulse	ForcedChoice_fMRI_PulseTime	ForcedChoice_Pressed_Button	ForcedChoice_RT	ForcedChoice_Response_Category	ForcedChoice_Accuracy	ForcedChoice_Feedback_OnsetTime	ForcedChoice_Feedback_OnsetTimeUncertainty	ForcedChoice_Feedback_fMRI_Pulse	ForcedChoice_Feedback_fMRI_PulseTime	Recognition_consc_Rating_OnsetTime	Recognition_consc_Rating_OnsetTimeUncertainty	Recognition_consc_Rating_fMRI_Pulse	Recognition_consc_Rating_fMRI_PulseTime	Recognition_consc_Rating_Pressed_Button	Recognition_consc_Rating_RT	Recognition_consc_Rating_Feedback_OnsetTime	Recognition_consc_Rating_Feedback_OnsetTimeUncertainty	Recognition_consc_Rating_Feedback_fMRI_Pulse	Recognition_consc_Rating_Feedback_fMRI_PulseTime	Presented_Person	Presented_Target	Presented_Lure	TrialStatus
68576	09/15/2021 15:13:37	1	1	47627	61012	1	5	58428	64161	1	7	63827	2	1577	organic	incorrect	65761	1	7	63827	68676	1	8	66528	2	1416	70126	1	9	69227	73441	1	10	71927	2	1494	organic	correct	74974	1	11	74628	78123	1	12	77327	3	1130	79289	1	12	77327	moj_11821.png	moj_Walnuss.png	moj_Blatt.png	ok
68576	09/15/2021 15:14:00	1	2	47627	82238	1	13	80027	85354	1	14	82727	2	768	organic	incorrect	86154	1	15	85427	89719	1	16	88127	2	1014	90769	1	16	88127	94834	1	18	93527	2	1315	organic	correct	96184	1	18	93527	99932	1	20	98927	3	331	100299	1	20	98927	mot_69374.png	mot_Bison.png	mot_Hotdog.png	ok
68576	09/15/2021 15:14:21	1	3	47627	104931	1	22	104327	108396	1	23	107027	2	1018	inorganic	correct	109446	1	23	107027	113045	1	25	112427	3	391	113461	1	25	112427	117226	1	26	115127	2	1257	inorganic	correct	118509	1	27	117827	122008	1	28	120526	4	259	122291	1	28	120526	mac_59169.png	mac_Medaille.png	mac_Dartpfeil.png	ok
68576	09/15/2021 15:14:41	1	4	47627	126507	1	30	125927	129056	1	31	128627	3	969	inorganic	incorrect	130055	1	31	128627	133154	1	32	131327	3	1105	134287	1	33	134027	137936	1	34	136727	2	1055	inorganic	correct	139019	1	34	136727	141801	1	35	139427	4	385	142218	1	36	142127	faj_07783.png	faj_Parfuem.png	faj_Schuh.png	ok
68576	09/15/2021 15:15:02	1	5	47627	146400	1	37	144827	148682	1	38	147527	3	1274	organic	correct	149982	1	38	147527	153381	1	40	152927	3	449	153864	1	40	152927	158496	1	42	158327	2	658	organic	correct	159179	1	42	158327	163128	1	43	161027	4	1181	164344	1	44	163727	mou_01862.png	mou_Croissant.png	mou_Kraehe.png	ok
68576	09/15/2021 15:15:22	1	6	47627	167343	1	45	166426	169659	1	46	169127	3	709	organic	correct	170392	1	46	169127	173691	1	47	171827	3	530	174257	1	47	171827	178706	1	49	177227	3	1473	organic	correct	180205	1	50	179927	183121	1	51	182626	4	363	183521	1	51	182626	fop_00621.png	fop_Koala.png	fop_Mango.png	ok
68576	09/15/2021 15:15:43	1	7	47627	186703	1	52	185327	188769	1	53	188027	2	1450	inorganic	correct	190252	1	53	188027	193067	1	54	190726	2	1378	194467	1	55	193427	198149	1	56	196127	3	1482	inorganic	correct	199665	1	57	198826	203731	1	58	201527	2	270	204030	1	58	201527	mae_01010.png	mae_Schach.png	mae_Taschenrechner.png	ok
68576	09/15/2021 15:16:04	1	8	47627	208296	1	60	206926	210645	1	61	209627	2	1491	organic	incorrect	212161	1	61	209627	215810	1	63	215026	3	1355	217193	1	63	215026	219775	1	64	217727	2	1846	organic	incorrect	221641	1	65	220426	224457	1	66	223126	2	295	224790	1	66	223126	mon_65798.png	mon_Kartoffel.png	mon_Fuchs.png	ok
68576	09/15/2021 15:16:23	1	9	47627	228822	1	68	228526	231121	1	68	228526	3	1485	organic	correct	232637	1	69	231226	236403	1	70	233927	2	244	236669	1	71	236626	239952	1	72	239326	2	1364	organic	correct	241351	1	72	239326	243867	1	73	242027	3	273	244167	1	73	242027	mob_00760.png	mob_Kiwi.png	mob_Igel.png	ok
68576	09/15/2021 15:16:44	1	10	47627	247699	1	75	247426	250998	1	76	250126	3	660	organic	correct	251681	1	76	250126	254863	1	77	252826	4	264	255163	1	77	252826	259428	1	79	258226	3	1023	organic	correct	260478	1	79	258226	264060	1	81	263626	4	919	265010	1	81	263626	fok_09378.png	fok_Palme.png	fok_Kaenguruh.png	ok
68576	09/15/2021 15:17:04	1	11	47627	268825	1	82	266326	270641	1	83	269026	3	1598	organic	correct	272291	1	84	271726	275323	1	85	274426	2	1309	276656	1	85	274426	278788	1	86	277126	2	1707	organic	correct	280521	1	87	279826	283803	1	88	282526	3	203	284037	1	88	282526	foa_00207.png	foa_Aubergine.png	foa_Marienkaefer.png	ok
68576	09/15/2021 15:17:26	1	12	47627	288552	1	90	287926	291784	1	91	290626	3	1288	organic	correct	293100	1	91	290626	296899	1	93	296025	2	271	297199	1	93	296025	300781	1	94	298726	3	1791	organic	correct	302597	1	95	301426	305979	1	96	304125	2	225	306229	1	96	304125	mol_07679.png	mol_Pizza.png	mol_Schimpanse.png	ok
68576	09/15/2021 15:17:47	1	13	47627	311277	1	98	309526	314576	1	99	312225	2	529	inorganic	correct	315126	1	100	314926	319041	1	101	317626	4	373	319441	1	101	317626	322757	1	102	320325	3	998	inorganic	correct	323807	1	103	323026	326722	1	104	325726	4	297	327055	1	104	325726	maj_01545.png	maj_Computermaus.png	maj_Krawatte.png	ok
68576	09/15/2021 15:18:04	1	14	47627	331754	1	106	331126	333670	1	106	331126	3	1152	inorganic	incorrect	334853	1	107	333825	337152	1	108	336525	2	1250	338435	1	108	336525	340867	1	109	339226	2	1794	inorganic	correct	342683	1	110	341925	345632	1	111	344625	3	835	346499	1	111	344625	fab_06018.png	fab_Staubsauger.png	fab_Kinderwagen.png	ok
68576	09/15/2021 15:18:24	1	15	47627	348998	1	112	347326	351381	1	113	350025	3	1066	organic	correct	352480	1	113	350025	356029	1	115	355426	2	1423	357478	1	115	355426	360927	1	117	360825	2	1960	organic	correct	362910	1	117	360825	364893	1	118	363526	3	225	365143	1	118	363526	fot_00797.png	fot_Taube.png	fot_Salat.png	ok
68576	09/15/2021 15:18:45	1	16	47627	368575	1	119	366225	372140	1	121	371626	2	1218	organic	incorrect	373406	1	121	371626	376355	1	122	374325	2	998	377388	1	123	377025	380071	1	124	379725	2	1231	organic	correct	381337	1	124	379725	385436	1	126	385125	4	285	385752	1	126	385125	foi_03389.png	foi_Apfelkuchen.png	foi_Pflanze.png	ok
68576	09/15/2021 15:19:06	1	17	47627	389951	1	127	387825	391617	1	128	390525	2	1629	organic	incorrect	393266	1	129	393225	396432	1	130	395925	2	1100	397565	1	130	395925	401530	1	132	401325	2	1419	organic	correct	402980	1	132	401325	406362	1	133	404025	4	346	406728	1	133	404025	moe_02012.png	moe_Waschbaer.png	moe_Pommes.png	ok
68576	09/15/2021 15:19:27	1	18	47627	410944	1	135	409425	413976	1	136	412125	2	1298	organic	incorrect	415309	1	137	414825	417608	1	138	417525	2	1096	418741	1	138	417525	421207	1	139	420225	3	1461	organic	correct	422706	1	139	420225	426705	1	141	425624	4	312	427038	1	141	425624	mom_59361.png	mom_Loewe.png	mom_Ei.png	ok
68576	09/15/2021 15:19:45	1	19	47627	431887	1	143	431025	434169	1	144	433724	2	984	inorganic	correct	435185	1	144	433724	438051	1	145	436425	4	208	438284	1	145	436425	442133	1	147	441824	3	604	inorganic	correct	442766	1	147	441824	446132	1	148	444525	4	1283	447448	1	149	447225	mat_23275.png	mat_Feuerzeug.png	mat_Helm.png	ok
68576	09/15/2021 15:20:05	1	20	47627	450364	1	150	449924	452380	1	150	449924	3	576	inorganic	incorrect	452979	1	151	452625	455928	1	152	455325	3	1064	457028	1	152	455325	461143	1	154	460725	2	1975	inorganic	correct	463143	1	154	460725	466492	1	156	466124	2	1586	468108	1	156	466124	far_00736.png	far_Heissluftballon.png	far_Giesskanne.png	ok
68576	09/15/2021 15:20:24	1	21	47627	470057	1	157	468825	471906	1	158	471524	2	1843	inorganic	correct	473772	1	158	471524	476605	1	159	474224	2	649	477288	1	160	476925	480337	1	161	479624	3	1266	inorganic	incorrect	481636	1	161	479624	484735	1	162	482324	3	1567	486335	1	163	485025	fal_07906.png	fal_Korb.png	fal_Buegeleisen.png	ok
68576	09/15/2021 15:20:42	1	22	47627	488584	1	164	487724	490650	1	165	490424	2	1302	organic	incorrect	491983	1	165	490424	494315	1	166	493125	3	921	495265	1	166	493125	498314	1	167	495824	2	1605	organic	correct	499947	1	168	498524	503462	1	169	501225	4	288	503779	1	169	501225	foe_08236.png	foe_Adler.png	foe_Tannenzapfen.png	ok
68576	09/15/2021 15:21:01	1	23	47627	507044	1	171	506625	509110	1	171	506625	3	1208	inorganic	incorrect	510343	1	172	509324	513876	1	173	512024	3	1206	515108	1	174	514725	517724	1	175	517424	3	1564	inorganic	correct	519340	1	175	517424	521973	1	176	520124	3	528	522523	1	176	520124	fag_06539.png	fag_Geschenk.png	fag_Portemonnaie.png	ok
68576	09/15/2021 15:21:20	1	24	47627	526055	1	178	525524	529287	1	179	528224	3	2123	inorganic	incorrect	531436	1	180	530925	534102	1	181	533624	2	1404	535535	1	181	533624	537667	1	182	536324	3	1712	inorganic	correct	539400	1	183	539025	541916	1	184	541724	3	1053	542999	1	184	541724	faw_14215.png	faw_Kuechenmaschine.png	faw_Hufeisen.png	ok
68576	09/15/2021 15:21:41	1	25	47627	545298	1	185	544424	548514	1	186	547125	3	552	inorganic	incorrect	549097	1	186	547125	552013	1	187	549824	3	341	552379	1	187	549824	556294	1	189	555224	2	1929	inorganic	correct	558244	1	190	557924	561326	1	191	560624	3	221	561576	1	191	560624	mas_41366.png	mas_Bueroklammer.png	mas_Tisch.png	ok
68576	09/15/2021 15:21:59	1	26	47627	565508	1	192	563324	567524	1	193	566024	3	1807	organic	correct	569373	1	194	568724	572206	1	195	571424	3	645	572872	1	195	571424	576621	1	196	574124	2	1666	organic	correct	578320	1	197	576824	580720	1	198	579524	3	991	581736	1	198	579524	foq_16799.png	foq_Fenchel.png	foq_Pinguin.png	ok
68576	09/15/2021 15:22:20	1	27	47627	584368	1	199	582224	586568	1	200	584924	2	786	organic	incorrect	587384	1	200	584924	591433	1	202	590324	3	1227	592682	1	202	590324	595614	1	203	593024	3	1461	organic	correct	597097	1	204	595724	599730	1	205	598424	3	1365	601129	1	205	598424	mos_20953.png	mos_Eintagsfliege.png	mos_Traube.png	ok
68576	09/15/2021 15:22:39	1	28	47627	605045	1	207	603824	606777	1	208	606524	3	1239	inorganic	incorrect	608044	1	208	606524	610876	1	209	609223	3	1007	611909	1	209	609223	614658	1	211	614624	2	2318	inorganic	incorrect	617007	1	211	614624	618507	1	212	617323	2	436	618990	1	212	617323	fai_07494.png	fai_Foehn.png	fai_Kommode.png	ok
68576	09/15/2021 15:22:58	1	29	47627	623588	1	214	622724	625771	1	215	625423	3	1815	organic	correct	627620	1	215	625423	630486	1	216	628124	3	727	631236	1	217	630824	634401	1	218	633523	2	1980	organic	incorrect	636401	1	219	636224	639083	1	220	638924	3	555	639666	1	220	638924	foc_02157.png	foc_Brombeere.png	foc_Eule.png	ok
68576	09/15/2021 15:23:19	1	30	47627	642515	1	221	641623	645964	1	222	644324	2	1687	inorganic	correct	647680	1	223	647023	651129	1	224	649723	3	2339	653495	1	225	652424	654661	1	225	652424	2	2023	inorganic	correct	656710	1	226	655123	659326	1	227	657823	3	853	660209	1	227	657823	map_41499.png	map_Pfeife.png	map_Globus.png	ok
68576	09/15/2021 15:23:39	1	31	47627	664058	1	229	663223	666341	1	230	665923	3	1861	inorganic	incorrect	668240	1	230	665923	671056	1	231	668624	2	1358	672438	1	232	671323	674821	1	233	674023	2	2189	inorganic	correct	677037	1	234	676724	679803	1	235	679423	3	796	680619	1	235	679423	fat_12032.png	fat_Einkaufswagen.png	fat_Kleiderbuegel.png	ok
68576	09/15/2021 15:23:57	1	32	47627	683785	1	236	682123	686167	1	237	684823	3	1948	organic	correct	688150	1	238	687523	691415	1	239	690223	2	1018	692465	1	239	690223	694798	1	240	692923	3	1689	organic	incorrect	696514	1	241	695623	698446	1	242	698323	3	332	698813	1	242	698323	moh_06446.png	moh_Muecke.png	moh_Birne.png	ok
68576	09/15/2021 15:24:18	1	33	47627	702462	1	243	701023	704778	1	244	703723	2	1504	inorganic	correct	706310	1	244	703723	709709	1	246	709123	2	894	710626	1	246	709123	714424	1	247	711823	3	2352	inorganic	correct	716823	1	248	714523	719189	1	249	717223	3	1752	720972	1	250	719923	mal_04470.png	mal_Kugelschreiber.png	mal_Drucker.png	ok
68576	09/15/2021 15:24:36	1	34	47627	722538	1	250	719923	724388	1	251	722623	2	752	inorganic	correct	725171	1	251	722623	729619	1	253	728023	2	1670	731319	1	254	730722	733151	1	254	730722	3	1782	inorganic	correct	734967	1	255	733423	737367	1	256	736123	3	928	738316	1	256	736123	mak_00987.png	mak_Rucksack.png	mak_Socken.png	ok
68576	09/15/2021 15:24:53	1	35	47627	740799	1	257	738822	743098	1	258	741523	3	923	organic	correct	744048	1	258	741523	746797	1	259	744223	3	2328	749146	1	260	746922	750479	1	261	749623	3	1878	organic	correct	752378	1	262	752323	754477	1	262	752323	3	998	755510	1	263	755022	mog_03090.png	mog_Fledermaus.png	mog_Pilz.png	ok
68576	09/15/2021 15:25:13	1	36	47627	758259	1	264	757723	761458	1	265	760423	3	1139	organic	correct	762625	1	265	760423	765724	1	266	763122	3	873	766640	1	267	765823	770355	1	268	768522	2	2415	organic	incorrect	772805	1	269	771222	774004	1	270	773923	3	1773	775803	1	270	773923	for_15187.png	for_Seehund.png	for_Mandel.png	ok
68576	09/15/2021 15:25:32	1	37	47627	777703	1	271	776622	779919	1	272	779322	3	963	organic	correct	780918	1	272	779322	784084	1	273	782023	3	841	784950	1	274	784722	788116	1	275	787422	3	1891	organic	correct	790032	1	275	787422	792698	1	276	790123	3	276	792998	1	277	792822	fou_17118.png	fou_Feige.png	fou_Schmetterling.png	ok
68576	09/15/2021 15:25:53	1	38	47627	797146	1	278	795522	799695	1	279	798223	3	517	organic	correct	800245	1	279	798223	804344	1	281	803622	2	1626	805993	1	281	803622	808259	1	282	806323	3	1994	organic	correct	810275	1	283	809022	813841	1	284	811722	2	291	814157	1	284	811722	foj_08220.png	foj_Waffel.png	foj_Rose.png	ok
68576	09/15/2021 15:26:15	1	39	47627	818222	1	286	817122	821105	1	287	819822	2	1243	organic	incorrect	822371	1	287	819822	825437	1	289	825222	3	993	826453	1	289	825222	830402	1	290	827922	2	2271	organic	correct	832701	1	291	830622	835633	1	292	833322	2	231	835900	1	292	833322	fov_15046.png	fov_Zucchini.png	fov_Fisch.png	ok
68576	09/15/2021 15:26:36	1	40	47627	840315	1	294	838722	843247	1	295	841422	3	773	inorganic	incorrect	844047	1	295	841422	847346	1	297	846822	2	1664	849045	1	297	846822	852627	1	299	852222	3	2638	inorganic	correct	855293	1	300	854922	857376	1	300	854922	3	1115	858525	1	301	857622	mai_06530.png	mai_Gewehr.png	mai_Auto.png	ok
68576	09/15/2021 15:26:56	1	41	47627	860758	1	302	860322	864007	1	303	863022	2	955	organic	incorrect	865007	1	303	863022	868789	1	305	868422	3	711	869522	1	305	868422	872704	1	306	871122	2	2387	organic	correct	875120	1	307	873822	876703	1	308	876522	3	239	876969	1	308	876522	mof_02408.png	mof_Spaghetti.png	mof_Hahn.png	ok
68576	09/15/2021 15:27:15	1	42	47627	881368	1	309	879222	883817	1	310	881922	3	1364	inorganic	incorrect	885216	1	311	884622	887882	1	312	887322	3	1301	889215	1	312	887322	892264	1	313	890022	2	2840	inorganic	correct	895130	1	314	892721	895863	1	315	895422	3	1468	897362	1	315	895422	maw_04767.png	maw_Schlauchboot.png	maw_Pingpongschlaeger.png	ok
68576	09/15/2021 15:27:37	1	43	47627	899578	1	316	898122	902594	1	317	900822	2	1053	inorganic	correct	903677	1	318	903522	907376	1	319	906221	2	589	907992	1	319	906221	911924	1	321	911622	3	1744	inorganic	correct	913707	1	321	911622	916756	1	322	914321	3	568	917356	1	323	917022	mau_49693.png	mau_Wasserventil.png	mau_Leiter.png	ok
68576	09/15/2021 15:27:57	1	44	47627	921937	1	324	919722	925386	1	326	925122	3	1930	inorganic	incorrect	927352	1	326	925122	928768	1	327	927822	2	827	929618	1	327	927822	933583	1	329	933222	2	1679	inorganic	correct	935283	1	329	933222	938032	1	330	935922	3	791	938848	1	331	938621	fap_16329.png	fap_Kissen.png	fap_Knopf.png	ok
68576	09/15/2021 15:28:17	1	45	47627	942164	1	332	941322	944896	1	333	944022	3	1089	inorganic	incorrect	946013	1	333	944022	948945	1	334	946721	2	1328	950294	1	335	949422	953343	1	336	952121	3	1667	inorganic	incorrect	955043	1	337	954821	957492	1	337	954821	3	1782	959308	1	338	957522	fax_14883.png	fax_Klebeband.png	fax_Fahrrad.png	ok
68576	09/15/2021 15:28:35	1	46	47627	961574	1	339	960221	963257	1	340	962921	0	0	inorganic	miss	963257	1	341	965622	968072	1	341	965622	3	1422	969521	1	342	968321	971954	1	343	971021	2	1686	inorganic	incorrect	973670	1	343	971021	976119	1	344	973722	3	872	977019	1	345	976421	fan_17286.png	fan_Klavier.png	fan_Lampe.png	ok
68576	09/15/2021 15:28:54	1	47	47627	979751	1	346	979121	981750	1	346	979121	2	1199	inorganic	correct	982983	1	347	981822	985449	1	348	984521	2	827	986299	1	348	984521	988998	1	349	987221	2	1782	inorganic	correct	990814	1	350	989921	994363	1	351	992621	3	211	994596	1	351	992621	mao_11634.png	mao_Stempel.png	mao_Kegel.png	ok
68576	09/15/2021 15:29:13	1	48	47627	998728	1	353	998021	1000711	1	353	998021	3	486	inorganic	incorrect	1001227	1	354	1000721	1004493	1	355	1003421	3	1348	1005876	1	355	1003421	1009291	1	357	1008821	2	1625	inorganic	incorrect	1010941	1	357	1008821	1013040	1	358	1011521	3	239	1013323	1	358	1011521	fac_02146.png	fac_Haarbuerste.png	fac_Ohrring.png	ok
68576	09/15/2021 15:29:33	1	49	47627	1018071	1	360	1016921	1019788	1	361	1019621	3	1810	inorganic	incorrect	1021620	1	361	1019621	1024286	1	362	1022321	2	1343	1025652	1	363	1025021	1028968	1	364	1027721	2	2020	inorganic	correct	1031017	1	365	1030421	1033999	1	366	1033121	3	1052	1035082	1	366	1033121	mac_59752.png	mac_Dartpfeil.png	mac_Medaille.png	ok
68576	09/15/2021 15:29:55	1	50	47627	1038398	1	367	1035820	1041064	1	368	1038521	3	1336	inorganic	incorrect	1042430	1	369	1041221	1044463	1	370	1043920	3	716	1045212	1	370	1043920	1049544	1	372	1049321	3	2087	inorganic	correct	1051660	1	372	1049321	1055109	1	374	1054721	3	831	1055975	1	374	1054721	faj_07849.png	faj_Schuh.png	faj_Parfuem.png	ok
68576	09/15/2021 15:30:15	1	51	47627	1059874	1	375	1057421	1061823	1	376	1060120	2	1557	organic	incorrect	1063423	1	377	1062821	1066988	1	378	1065521	3	1203	1068221	1	378	1065521	1071470	1	380	1070921	3	1380	organic	correct	1072870	1	380	1070921	1076618	1	382	1076320	0	0	1076618	1	383	1079021	mot_69770.png	mot_Hotdog.png	mot_Bison.png	ok
68576	09/15/2021 15:30:35	1	52	47627	1080184	1	383	1079021	1083349	1	384	1081720	0	0	organic	miss	1083349	1	385	1084420	1087815	1	386	1087121	4	1922	1089764	1	386	1087121	1092596	1	388	1092520	3	1866	organic	correct	1094496	1	388	1092520	1096595	1	389	1095221	4	1352	1097978	1	390	1097920	moj_11860.png	moj_Blatt.png	moj_Walnuss.png	ok
68576	09/15/2021 15:30:56	1	53	47627	1099977	1	390	1097920	1101876	1	391	1100620	2	1111	organic	incorrect	1103009	1	391	1100620	1107175	1	393	1106020	2	1461	1108657	1	393	1106020	1111373	1	394	1108720	3	1948	organic	correct	1113373	1	395	1111421	1116888	1	397	1116820	3	287	1117205	1	397	1116820	fop_07937.png	fop_Mango.png	fop_Koala.png	ok
68576	09/15/2021 15:31:14	1	54	47627	1120970	1	398	1119520	1122886	1	399	1122220	2	1355	inorganic	correct	1124269	1	399	1122220	1126701	1	400	1124920	2	579	1127301	1	400	1124920	1130100	1	401	1127620	2	1707	inorganic	correct	1131833	1	402	1130320	1135632	1	403	1133020	3	1580	1137248	1	404	1135720	mae_36426.png	mae_Taschenrechner.png	mae_Schach.png	ok
68576	09/15/2021 15:31:34	1	55	47627	1139330	1	405	1138420	1142396	1	406	1141120	3	1126	organic	correct	1143546	1	406	1141120	1146295	1	407	1143820	2	836	1147161	1	408	1146520	1150410	1	409	1149220	2	1907	organic	correct	1152343	1	410	1151920	1155425	1	411	1154620	3	1549	1157008	1	411	1154620	mon_69587.png	mon_Fuchs.png	mon_Kartoffel.png	ok
68576	09/15/2021 15:31:55	1	56	47627	1159157	1	412	1157320	1162673	1	413	1160020	2	203	organic	incorrect	1162922	1	414	1162720	1167338	1	415	1165420	3	1407	1168770	1	416	1168120	1172019	1	417	1170819	3	1635	organic	correct	1173685	1	418	1173519	1176235	1	418	1173519	3	224	1176485	1	419	1176220	mou_06524.png	mou_Kraehe.png	mou_Croissant.png	ok
68576	09/15/2021 15:32:15	1	57	47627	1180017	1	420	1178919	1183182	1	421	1181620	3	559	organic	correct	1183765	1	421	1181620	1186998	1	422	1184319	3	755	1187781	1	423	1187019	1191396	1	424	1189719	3	2044	organic	correct	1193462	1	425	1192419	1195545	1	426	1195119	3	1202	1196778	1	426	1195119	mol_11363.png	mol_Schimpanse.png	mol_Pizza.png	ok
68576	09/15/2021 15:32:36	1	58	47627	1200143	1	427	1197819	1202059	1	428	1200520	2	2006	organic	incorrect	1204092	1	429	1203220	1206241	1	430	1205918	2	1297	1207574	1	430	1205918	1210940	1	431	1208619	2	1347	organic	correct	1212339	1	432	1211318	1215838	1	433	1214018	3	873	1216738	1	433	1214018	fok_09860.png	fok_Kaenguruh.png	fok_Palme.png	ok
68576	09/15/2021 15:32:55	1	59	47627	1220753	1	435	1219418	1223402	1	436	1222118	2	1628	organic	incorrect	1225051	1	437	1224819	1228134	1	438	1227519	2	944	1229100	1	438	1227519	1232249	1	439	1230219	3	1749	organic	correct	1234032	1	440	1232919	1236331	1	441	1235618	3	227	1236581	1	441	1235618	foa_00426.png	foa_Marienkaefer.png	foa_Aubergine.png	ok
68576	09/15/2021 15:33:15	1	60	47627	1240263	1	442	1238319	1242229	1	443	1241019	3	1556	organic	correct	1243812	1	444	1243718	1245978	1	444	1243718	2	822	1246827	1	445	1246420	1251243	1	446	1249118	2	1221	organic	correct	1252492	1	447	1251818	1255874	1	448	1254519	4	323	1256224	1	448	1254519	mob_22833.png	mob_Igel.png	mob_Kiwi.png	ok
68576	09/15/2021 15:33:36	1	61	47627	1260456	1	450	1259918	1263205	1	451	1262620	2	537	organic	incorrect	1263772	1	451	1262620	1267104	1	452	1265319	2	196	1267337	1	452	1265319	1271669	1	454	1270719	2	1533	organic	correct	1273235	1	454	1270719	1277100	1	456	1276118	3	1022	1278150	1	456	1276118	fot_06092.png	fot_Salat.png	fot_Taube.png	ok
68576	09/15/2021 15:33:56	1	62	47627	1280533	1	457	1278819	1283798	1	458	1281518	2	1760	inorganic	correct	1285581	1	459	1284218	1287264	1	460	1286919	2	1031	1288330	1	460	1286919	1290846	1	461	1289618	3	1505	inorganic	correct	1292379	1	462	1292318	1295494	1	463	1295018	3	760	1296277	1	463	1295018	maj_01546.png	maj_Krawatte.png	maj_Computermaus.png	ok
68576	09/15/2021 15:34:17	1	63	47627	1300709	1	465	1300418	1303025	1	465	1300418	3	1994	organic	correct	1305041	1	466	1303118	1308140	1	467	1305818	2	2663	1310856	1	468	1308518	1313405	1	469	1311218	3	1782	organic	correct	1315221	1	470	1313918	1318003	1	471	1316618	3	725	1318753	1	471	1316618	foi_05187.png	foi_Pflanze.png	foi_Apfelkuchen.png	ok
68576	09/15/2021 15:34:37	1	64	47627	1322235	1	473	1322018	1323801	1	473	1322018	3	1983	inorganic	incorrect	1325817	1	474	1324718	1327533	1	475	1327418	2	872	1328433	1	475	1327418	1332348	1	476	1330118	2	2090	inorganic	correct	1334464	1	477	1332818	1337163	1	478	1335518	2	1421	1338613	1	479	1338218	fab_06286.png	fab_Kinderwagen.png	fab_Staubsauger.png	ok
68576	09/15/2021 15:34:58	1	65	47627	1341745	1	480	1340917	1344161	1	481	1343618	3	1501	organic	correct	1345694	1	481	1343618	1348710	1	482	1346319	2	878	1349609	1	483	1349017	1352525	1	484	1351718	3	1768	organic	correct	1354324	1	484	1351718	1357940	1	486	1357117	3	695	1358673	1	486	1357117	mom_59641.png	mom_Ei.png	mom_Loewe.png	ok
68576	09/15/2021 15:35:21	1	66	47627	1362721	1	488	1362518	1366137	1	489	1365217	3	1907	inorganic	incorrect	1368070	1	490	1367918	1371302	1	491	1370618	2	1691	1373018	1	491	1370618	1376384	1	493	1376018	2	1409	inorganic	correct	1377816	1	493	1376018	1381515	1	495	1381417	3	215	1381765	1	495	1381417	mat_23754.png	mat_Helm.png	mat_Feuerzeug.png	ok
68576	09/15/2021 15:35:40	1	67	47627	1385530	1	496	1384118	1387563	1	497	1386817	2	1894	organic	incorrect	1389479	1	497	1386817	1391495	1	498	1389517	2	300	1391828	1	498	1389517	1396243	1	500	1394917	3	2316	organic	correct	1398593	1	501	1397617	1400209	1	501	1397617	3	1418	1401658	1	502	1400318	moe_23630.png	moe_Pommes.png	moe_Waschbaer.png	ok
68576	09/15/2021 15:36:02	1	68	47627	1405174	1	503	1403017	1408623	1	505	1408418	2	775	inorganic	correct	1409439	1	505	1408418	1413538	1	506	1411117	2	1156	1414721	1	507	1413817	1417686	1	508	1416519	3	2005	inorganic	incorrect	1419719	1	509	1419217	1422051	1	510	1421917	2	1039	1423118	1	510	1421917	far_06518.png	far_Giesskanne.png	far_Heissluftballon.png	ok
68576	09/15/2021 15:36:23	1	69	47627	1426900	1	511	1424617	1428799	1	512	1427317	3	963	inorganic	incorrect	1429782	1	512	1427317	1432481	1	513	1430017	3	293	1432798	1	514	1432717	1437146	1	515	1435417	3	1772	inorganic	correct	1438946	1	516	1438117	1442628	1	517	1440817	3	1158	1443811	1	518	1443517	fag_06551.png	fag_Portemonnaie.png	fag_Geschenk.png	ok
68576	09/15/2021 15:36:42	1	70	47627	1447576	1	519	1446217	1450109	1	520	1448917	3	1129	organic	correct	1451275	1	520	1448917	1453957	1	521	1451617	2	1520	1455507	1	522	1454317	1458256	1	523	1457017	2	1739	organic	correct	1460022	1	524	1459717	1462088	1	524	1459717	3	1092	1463204	1	525	1462417	foe_08514.png	foe_Tannenzapfen.png	foe_Adler.png	ok
68576	09/15/2021 15:37:00	1	71	47627	1467269	1	526	1465117	1470468	1	527	1467817	2	1359	inorganic	correct	1471851	1	528	1470517	1473917	1	529	1473217	2	993	1474933	1	529	1473217	1477499	1	530	1475917	2	1662	inorganic	correct	1479182	1	531	1478616	1481931	1	532	1481317	2	1019	1482981	1	532	1481317	fal_07977.png	fal_Buegeleisen.png	fal_Korb.png	ok
68576	09/15/2021 15:37:20	1	72	47627	1485280	1	533	1484017	1487546	1	534	1486716	3	2060	inorganic	incorrect	1489628	1	535	1489417	1492011	1	535	1489417	2	226	1492261	1	536	1492117	1495443	1	537	1494816	2	1870	inorganic	incorrect	1497343	1	537	1494816	1499692	1	538	1497517	2	1635	1501358	1	539	1500217	faw_14685.png	faw_Hufeisen.png	faw_Kuechenmaschine.png	ok
68576	09/15/2021 15:37:41	1	73	47627	1504740	1	540	1502916	1507489	1	541	1505617	3	225	organic	correct	1507756	1	541	1505617	1511538	1	543	1511016	2	207	1511771	1	543	1511016	1516469	1	545	1516416	3	1164	organic	correct	1517669	1	545	1516416	1520951	1	546	1519116	4	303	1521284	1	546	1519116	foq_17341.png	foq_Pinguin.png	foq_Fenchel.png	ok
68576	09/15/2021 15:38:01	1	74	47627	1525866	1	548	1524516	1528632	1	549	1527216	2	1019	organic	incorrect	1529682	1	549	1527216	1532731	1	551	1532616	3	1146	1533914	1	551	1532616	1536746	1	552	1535316	2	1572	organic	correct	1538345	1	553	1538017	1540361	1	553	1538017	3	288	1540678	1	553	1538017	mos_23223.png	mos_Traube.png	mos_Eintagsfliege.png	ok
68576	09/15/2021 15:38:20	1	75	47627	1545576	1	555	1543416	1548142	1	556	1546117	3	1553	inorganic	incorrect	1549725	1	557	1548816	1552674	1	558	1551516	2	1766	1554490	1	559	1554217	1556339	1	559	1554217	2	1693	inorganic	correct	1558072	1	560	1556916	1560838	1	561	1559616	3	436	1561304	1	561	1559616	fai_07637.png	fai_Kommode.png	fai_Foehn.png	ok
68576	09/15/2021 15:38:40	1	76	47627	1564803	1	562	1562316	1566752	1	563	1565016	2	1549	inorganic	correct	1568335	1	564	1567716	1570634	1	565	1570416	2	976	1571634	1	565	1570416	1574883	1	566	1573116	2	1479	inorganic	correct	1576382	1	567	1575816	1580264	1	568	1578516	3	261	1580548	1	568	1578516	mas_41937.png	mas_Tisch.png	mas_Bueroklammer.png	ok
68576	09/15/2021 15:39:00	1	77	47627	1585030	1	570	1583916	1586596	1	570	1583916	3	1807	organic	correct	1588428	1	571	1586616	1590894	1	572	1589316	3	1285	1592210	1	573	1592016	1595576	1	574	1594716	0	0	organic	miss	1595576	1	575	1597416	1601091	1	576	1600116	2	1917	1603040	1	577	1602816	moh_07125.png	moh_Birne.png	moh_Muecke.png	ok
68576	09/15/2021 15:39:20	1	78	47627	1605206	1	577	1602816	1608055	1	578	1605516	2	988	organic	incorrect	1609071	1	579	1608216	1612787	1	580	1610916	2	1825	1614636	1	581	1613616	1616752	1	582	1616316	2	2263	organic	incorrect	1619035	1	582	1616316	1620384	1	583	1619016	3	2121	1622534	1	584	1621716	foc_02664.png	foc_Eule.png	foc_Brombeere.png	ok
68576	09/15/2021 15:39:40	1	79	47627	1624733	1	585	1624416	1627082	1	585	1624416	2	908	inorganic	correct	1628015	1	586	1627116	1632264	1	587	1629816	2	1653	1633946	1	588	1632515	1636945	1	589	1635216	3	1695	inorganic	correct	1638661	1	590	1637916	1641460	1	591	1640615	3	266	1641760	1	591	1640615	map_49576.png	map_Globus.png	map_Pfeife.png	ok
68576	09/15/2021 15:39:59	1	80	47627	1645242	1	592	1643316	1648591	1	593	1646015	3	1962	inorganic	incorrect	1650574	1	594	1648716	1652357	1	595	1651416	2	784	1653190	1	595	1651416	1655806	1	596	1654115	2	2119	inorganic	correct	1657955	1	597	1656816	1660154	1	598	1659516	3	740	1660921	1	598	1659516	fat_14140.png	fat_Kleiderbuegel.png	fat_Einkaufswagen.png	ok
68576	09/15/2021 15:40:19	1	81	47627	1663936	1	599	1662215	1666702	1	600	1664916	3	997	organic	correct	1667735	1	601	1667616	1670751	1	602	1670315	3	413	1671200	1	602	1670315	1675216	1	603	1673016	2	1116	organic	correct	1676365	1	604	1675716	1680047	1	605	1678415	4	350	1680431	1	605	1678415	for_15880.png	for_Mandel.png	for_Seehund.png	ok
68576	09/15/2021 15:40:38	1	82	47627	1683563	1	606	1681116	1685862	1	607	1683816	3	1751	inorganic	incorrect	1687645	1	608	1686515	1689761	1	609	1689216	2	1958	1691743	1	609	1689216	1693643	1	610	1691915	2	2472	inorganic	incorrect	1696142	1	611	1694615	1699158	1	612	1697316	2	357	1699541	1	612	1697316	mal_20552.png	mal_Drucker.png	mal_Kugelschreiber.png	ok
68576	09/15/2021 15:40:58	1	83	47627	1702840	1	614	1702715	1705222	1	614	1702715	2	1298	inorganic	correct	1706555	1	615	1705416	1709521	1	616	1708115	2	793	1710337	1	616	1708115	1714636	1	618	1713516	3	1893	inorganic	correct	1716552	1	619	1716215	1718884	1	619	1716215	2	839	1719751	1	620	1718915	mak_03979.png	mak_Socken.png	mak_Rucksack.png	ok
68576	09/15/2021 15:41:19	1	84	47627	1722883	1	621	1721616	1725682	1	622	1724315	3	956	organic	correct	1726665	1	622	1724315	1730614	1	624	1729716	3	1061	1731697	1	624	1729716	1735895	1	626	1735115	3	2199	organic	incorrect	1738128	1	627	1737815	1739577	1	627	1737815	3	1376	1740977	1	628	1740515	mog_03277.png	mog_Pilz.png	mog_Fledermaus.png	ok
68576	09/15/2021 15:41:40	1	85	47627	1743576	1	629	1743215	1746975	1	630	1745915	2	2135	organic	incorrect	1749141	1	631	1748615	1751023	1	631	1748615	2	342	1751390	1	632	1751315	1755955	1	633	1754015	2	2457	organic	correct	1758437	1	634	1756715	1760204	1	635	1759415	3	1400	1761636	1	635	1759415	fov_15193.png	fov_Fisch.png	fov_Zucchini.png	ok
68576	09/15/2021 15:42:00	1	86	47627	1764919	1	637	1764815	1767185	1	637	1764815	2	1474	organic	incorrect	1768684	1	638	1767515	1771067	1	639	1770215	2	764	1771866	1	639	1770215	1775432	1	640	1772915	3	1786	organic	incorrect	1777248	1	641	1775615	1780113	1	642	1778315	2	1229	1781380	1	643	1781015	fou_18966.png	fou_Schmetterling.png	fou_Feige.png	ok
68576	09/15/2021 15:42:19	1	87	47627	1785312	1	644	1783714	1787394	1	645	1786415	3	2226	organic	correct	1789644	1	646	1789115	1791160	1	646	1789115	2	849	1792043	1	647	1791814	1794958	1	648	1794515	2	2543	organic	incorrect	1797524	1	649	1797215	1798707	1	649	1797215	3	573	1799307	1	649	1797215	foj_08937.png	foj_Rose.png	foj_Waffel.png	ok
68576	09/15/2021 15:42:38	1	88	47627	1804005	1	651	1802615	1805688	1	652	1805315	2	1263	inorganic	correct	1806971	1	652	1805315	1809887	1	653	1808014	3	253	1810170	1	653	1808014	1813752	1	655	1813415	3	1715	inorganic	correct	1815502	1	655	1813415	1818367	1	656	1816114	4	998	1819400	1	657	1818815	mai_23761.png	mai_Auto.png	mai_Gewehr.png	ok
68576	09/15/2021 15:42:56	1	89	47627	1823082	1	658	1821514	1825032	1	659	1824214	3	1525	inorganic	incorrect	1826581	1	659	1824214	1829447	1	660	1826915	3	1627	1831096	1	661	1829614	1832779	1	662	1832314	3	2854	inorganic	correct	1835661	1	663	1835015	1837044	1	663	1835015	3	1815	1838894	1	664	1837714	fap_17119.png	fap_Knopf.png	fap_Kissen.png	ok
68576	09/15/2021 15:43:16	1	90	47627	1840926	1	665	1840414	1843925	1	666	1843115	2	211	inorganic	correct	1844158	1	666	1843115	1848924	1	668	1848514	2	1809	1850773	1	668	1848514	1852955	1	669	1851215	2	1901	inorganic	correct	1854888	1	670	1853914	1856904	1	671	1856614	2	608	1857537	1	671	1856614	mau_58144.png	mau_Leiter.png	mau_Wasserventil.png	ok
68576	09/15/2021 15:43:34	1	91	47627	1861453	1	672	1859315	1863435	1	673	1862014	3	2059	inorganic	incorrect	1865518	1	674	1864714	1866834	1	674	1864714	2	1280	1868150	1	675	1867414	1870200	1	676	1870114	2	1819	inorganic	correct	1872049	1	676	1870114	1874182	1	677	1872814	3	213	1874415	1	677	1872814	maw_22459.png	maw_Pingpongschlaeger.png	maw_Schlauchboot.png	ok
68576	09/15/2021 15:43:54	1	92	47627	1878830	1	679	1878214	1880929	1	679	1878214	3	1216	organic	correct	1882179	1	680	1880914	1885694	1	681	1883614	0	0	1885694	1	682	1886314	1889626	1	683	1889014	2	2529	organic	correct	1892176	1	684	1891714	1893292	1	684	1891714	3	838	1894158	1	684	1891714	mof_06901.png	mof_Hahn.png	mof_Spaghetti.png	ok
68576	09/15/2021 15:44:15	1	93	47627	1898607	1	686	1897114	1901189	1	687	1899814	3	667	inorganic	incorrect	1901906	1	687	1899814	1905904	1	689	1905213	2	1418	1907354	1	689	1905213	1909320	1	690	1907914	2	1775	inorganic	incorrect	1911119	1	691	1910614	1914435	1	692	1913313	3	252	1914718	1	692	1913313	fan_18894.png	fan_Lampe.png	fan_Klavier.png	ok
68576	09/15/2021 15:44:36	1	94	47627	1919633	1	694	1918714	1923148	1	695	1921414	2	1857	inorganic	correct	1925031	1	696	1924114	1928097	1	697	1926814	2	1715	1929846	1	698	1929513	1933012	1	699	1932214	3	1842	inorganic	correct	1934878	1	699	1932214	1937710	1	701	1937613	2	1857	1939593	1	701	1937613	mao_19000.png	mao_Kegel.png	mao_Stempel.png	ok
68576	09/15/2021 15:44:55	1	95	47627	1941309	1	702	1940314	1943458	1	703	1943014	3	2159	inorganic	incorrect	1945641	1	703	1943014	1947424	1	704	1945713	3	1995	1949456	1	705	1948414	1952438	1	706	1951113	2	2378	inorganic	incorrect	1954838	1	707	1953813	1956654	1	708	1956514	3	1749	1958436	1	708	1956514	fac_02970.png	fac_Ohrring.png	fac_Haarbuerste.png	ok
68576	09/15/2021 15:45:15	1	96	47627	1960203	1	709	1959213	1962452	1	710	1961913	2	1848	inorganic	correct	1964334	1	710	1961913	1967150	1	711	1964614	2	1330	1968516	1	712	1967313	1970516	1	713	1970013	3	1583	inorganic	correct	1972132	1	713	1970013	1975647	1	715	1975413	3	467	1976147	1	715	1975413	fax_15310.png	fax_Fahrrad.png	fax_Klebeband.png	ok
