ID	DateTime	Run	Delayed_Retrieval_Trial	First_Pulse_Time	FaceRecog_OnsetTime	FaceRecog_OnsetTimeUncertainty	FaceRecog_fMRI_Pulse	FaceRecog_fMRI_PulseTime	Assoc_Retrieval_OnsetTime	Assoc_Retrieval_OnsetTimeUncertainty	Assoc_Retrieval_fMRI_Pulse	Assoc_Retrieval_fMRI_PulseTime	Assoc_Retrieval_Pressed_Button	Assoc_Retrieval_RT	Assoc_Retrieval_Response_Category	Assoc_Retrieval_Accuracy	Assoc_Retrieval_Feedback_OnsetTime	Assoc_Retrieval_Feedback_OnsetTimeUncertainty	Assoc_Retrieval_Feedback_fMRI_Pulse	Assoc_Retrieval_Feedback_fMRI_PulseTime	Retrieval_consc_Rating_OnsetTime	Retrieval_consc_Rating_OnsetTimeUncertainty	Retrieval_consc_Rating_fMRI_Pulse	Retrieval_consc_Rating_fMRI_PulseTime	Retrieval_consc_Rating_Pressed_Button	Retrieval_consc_Rating_RT	Retrieval_consc_Rating_Feedback_OnsetTime	Retrieval_consc_Rating_Feedback_OnsetTimeUncertainty	Retrieval_consc_Rating_Feedback_fMRI_Pulse	Retrieval_consc_Rating_Feedback_fMRI_PulseTime	ForcedChoice_OnsetTime	ForcedChoice_OnsetTimeUncertainty	ForcedChoice_fMRI_Pulse	ForcedChoice_fMRI_PulseTime	ForcedChoice_Pressed_Button	ForcedChoice_RT	ForcedChoice_Response_Category	ForcedChoice_Accuracy	ForcedChoice_Feedback_OnsetTime	ForcedChoice_Feedback_OnsetTimeUncertainty	ForcedChoice_Feedback_fMRI_Pulse	ForcedChoice_Feedback_fMRI_PulseTime	Recognition_consc_Rating_OnsetTime	Recognition_consc_Rating_OnsetTimeUncertainty	Recognition_consc_Rating_fMRI_Pulse	Recognition_consc_Rating_fMRI_PulseTime	Recognition_consc_Rating_Pressed_Button	Recognition_consc_Rating_RT	Recognition_consc_Rating_Feedback_OnsetTime	Recognition_consc_Rating_Feedback_OnsetTimeUncertainty	Recognition_consc_Rating_Feedback_fMRI_Pulse	Recognition_consc_Rating_Feedback_fMRI_PulseTime	Presented_Person	Presented_Target	Presented_Lure	TrialStatus
69606	06/23/2021 08:16:18	1	1	269886	281938	1	6	280482	284987	1	8	284727	3	1667	organic	correct	286686	1	8	284727	289985	1	10	288966	2	575	290585	1	10	288966	294050	1	12	293206	3	2412	organic	correct	296483	1	13	295326	298349	1	14	297446	3	800	299182	1	14	297446	mou_01862.png	mou_Croissant.png	mou_Kraehe.png	ok
69606	06/23/2021 08:16:40	1	2	269886	303547	1	16	301686	306946	1	18	305926	2	616	inorganic	correct	307596	1	18	305926	311561	1	20	310166	4	389	311978	1	20	310166	316243	1	22	314406	2	638	inorganic	correct	316909	1	23	316525	320425	1	24	318646	4	1054	321508	1	25	320766	maj_01545.png	maj_Krawatte.png	maj_Computermaus.png	ok
69606	06/23/2021 08:17:01	1	3	269886	325107	1	27	325006	328656	1	28	327126	2	646	organic	incorrect	329339	1	29	329246	333654	1	31	333486	2	292	333970	1	31	333486	337536	1	32	335606	2	1625	organic	correct	339185	1	33	337726	341818	1	34	339845	4	439	342284	1	35	341966	moj_11821.png	moj_Walnuss.png	moj_Blatt.png	ok
69606	06/23/2021 08:17:21	1	4	269886	345616	1	36	344086	349032	1	38	348325	3	1008	organic	correct	350065	1	38	348325	352414	1	39	350446	2	1081	353547	1	40	352566	356979	1	42	356805	3	2193	organic	correct	359195	1	43	358926	360978	1	43	358926	3	605	361611	1	44	361046	mol_07679.png	mol_Pizza.png	mol_Schimpanse.png	ok
69606	06/23/2021 08:17:40	1	5	269886	365726	1	46	365285	369159	1	47	367406	3	326	inorganic	incorrect	369508	1	47	367406	372691	1	49	371645	2	439	373157	1	49	371645	377639	1	51	375886	2	1964	inorganic	correct	379638	1	52	378006	381321	1	53	380125	4	792	382138	1	53	380125	mae_01010.png	mae_Schach.png	mae_Taschenrechner.png	ok
69606	06/23/2021 08:18:00	1	6	269886	385087	1	55	384367	388335	1	56	386485	3	1186	organic	correct	389552	1	57	388605	392917	1	59	392846	2	305	393250	1	59	392846	396733	1	60	394965	2	2153	organic	correct	398915	1	61	397085	401531	1	63	401326	3	956	402531	1	63	401326	mob_00760.png	mob_Igel.png	mob_Kiwi.png	ok
69606	06/23/2021 08:18:20	1	7	269886	405330	1	64	403445	408645	1	66	407686	2	426	organic	incorrect	409095	1	66	407686	412277	1	68	411925	2	680	412994	1	68	411925	415660	1	69	414045	3	2112	organic	correct	417792	1	70	416166	421191	1	72	420405	4	464	421691	1	72	420405	moe_02012.png	moe_Waschbaer.png	moe_Pommes.png	ok
69606	06/23/2021 08:18:42	1	8	269886	425056	1	74	424645	428589	1	75	426765	3	552	organic	correct	429172	1	76	428885	432854	1	77	431005	2	331	433220	1	78	433125	437486	1	80	437365	3	2316	organic	correct	439835	1	81	439486	442451	1	82	441605	2	598	443084	1	82	441605	mog_03090.png	mog_Fledermaus.png	mog_Pilz.png	ok
69606	06/23/2021 08:19:03	1	9	269886	446682	1	84	445845	449681	1	85	447965	2	451	inorganic	correct	450181	1	86	450085	454063	1	87	452205	4	352	454463	1	88	454325	459411	1	90	458565	3	962	inorganic	correct	460395	1	90	458565	463443	1	92	462806	4	1060	464526	1	92	462806	faj_07783.png	faj_Schuh.png	faj_Parfuem.png	ok
69606	06/23/2021 08:19:22	1	10	269886	468375	1	94	467046	471258	1	95	469166	3	1626	organic	correct	472907	1	96	471285	476256	1	98	475526	4	386	476672	1	98	475526	480238	1	100	479766	2	893	organic	correct	481154	1	100	479766	483887	1	101	481885	4	373	484286	1	102	484006	mot_69374.png	mot_Bison.png	mot_Hotdog.png	ok
69606	06/23/2021 08:19:42	1	11	269886	487319	1	103	486126	490401	1	105	490366	2	598	organic	incorrect	491034	1	105	490366	494133	1	106	492486	2	492	494650	1	107	494605	498598	1	108	496726	3	1370	organic	correct	500014	1	109	498846	502480	1	110	500966	4	1024	503547	1	111	503085	foq_16799.png	foq_Pinguin.png	foq_Fenchel.png	ok
69606	06/23/2021 08:20:01	1	12	269886	506862	1	112	505206	508728	1	113	507326	3	1457	inorganic	incorrect	510211	1	114	509446	513143	1	115	511565	2	400	513577	1	115	511565	517692	1	117	515806	3	1763	inorganic	correct	519491	1	118	517925	522424	1	120	522166	3	290	522740	1	120	522166	mas_41366.png	mas_Bueroklammer.png	mas_Tisch.png	ok
69606	06/23/2021 08:20:23	1	13	269886	525889	1	121	524286	529205	1	123	528525	2	508	inorganic	correct	529738	1	123	528525	533570	1	125	532765	4	286	533886	1	125	532765	537419	1	127	537005	3	971	inorganic	correct	538418	1	127	537005	542500	1	129	541245	3	435	542967	1	129	541245	fat_12032.png	fat_Einkaufswagen.png	fat_Kleiderbuegel.png	ok
69606	06/23/2021 08:20:43	1	14	269886	547782	1	132	547606	551231	1	133	549725	2	782	inorganic	correct	552064	1	134	551845	555929	1	135	553966	2	321	556279	1	136	556085	559444	1	137	558205	2	2312	inorganic	correct	561777	1	138	560325	564393	1	139	562446	2	843	565259	1	140	564565	fan_17286.png	fan_Lampe.png	fan_Klavier.png	ok
69606	06/23/2021 08:21:03	1	15	269886	568142	1	141	566685	570224	1	142	568805	3	589	organic	correct	570841	1	142	568805	574839	1	144	573045	4	348	575223	1	145	575165	578838	1	146	577285	2	491	organic	correct	579354	1	146	577285	584286	1	149	583645	4	625	584936	1	149	583645	fop_00621.png	fop_Koala.png	fop_Mango.png	ok
69606	06/23/2021 08:21:23	1	16	269886	587852	1	150	585766	590517	1	152	590005	3	1010	organic	correct	591550	1	152	590005	594166	1	153	592125	4	929	595132	1	154	594246	599214	2	156	598485	3	695	organic	correct	599948	1	156	598485	603596	1	158	602725	4	586	604213	1	158	602725	fot_00797.png	fot_Salat.png	fot_Taube.png	ok
69606	06/23/2021 08:21:44	1	17	269886	608128	1	160	606965	610561	1	161	609085	2	499	organic	incorrect	611094	1	161	609085	614859	1	163	613325	3	435	615326	1	163	613325	618974	1	165	617565	0	0	organic	incorrect	618974	1	167	621805	624473	1	168	623925	3	436	624939	1	168	623925	foa_00207.png	foa_Marienkaefer.png	foa_Aubergine.png	ok
69606	06/23/2021 08:22:03	1	18	269886	628888	1	170	628165	631970	1	171	630285	3	488	organic	correct	632487	1	172	632405	635502	1	173	634525	3	1650	637185	1	174	636645	639651	1	175	638765	2	1115	organic	correct	640800	1	175	638765	643450	1	177	643005	4	1288	644766	1	177	643005	mos_20953.png	mos_Eintagsfliege.png	mos_Traube.png	ok
69606	06/23/2021 08:22:24	1	19	269886	647898	1	179	647245	649931	1	180	649364	2	859	inorganic	correct	650830	1	180	649364	654413	1	182	653605	4	250	654696	1	182	653605	657778	1	183	655725	2	617	inorganic	correct	658428	1	184	657844	663293	1	186	662085	4	791	664109	1	186	662085	mat_23275.png	mat_Helm.png	mat_Feuerzeug.png	ok
69606	06/23/2021 08:22:45	1	20	269886	668574	1	189	668445	671157	1	190	670565	3	901	organic	correct	672090	1	190	670565	676139	1	192	674804	3	789	676955	1	193	676925	679787	1	194	679045	3	1352	organic	correct	681170	1	194	679045	685302	1	196	683284	4	895	686235	1	197	685405	foj_08220.png	foj_Waffel.png	foj_Rose.png	ok
69606	06/23/2021 08:23:08	1	21	269886	690217	1	199	689644	692833	1	200	691764	3	1627	inorganic	incorrect	694482	1	201	693885	698098	1	202	696004	2	326	698464	1	203	698124	703313	1	205	702365	3	2237	inorganic	correct	705579	1	206	704484	708494	1	207	706604	4	983	709511	1	208	708725	fai_07494.png	fai_Kommode.png	fai_Foehn.png	ok
69606	06/23/2021 08:23:27	1	22	269886	713059	1	210	712964	715142	1	211	715084	3	572	organic	correct	715742	1	211	715084	719524	1	213	719324	4	320	719874	1	213	719324	724256	1	215	723564	2	407	organic	correct	724689	1	215	723564	727904	1	217	727804	4	1101	729037	1	217	727804	fov_15046.png	fov_Zucchini.png	fov_Fisch.png	ok
69606	06/23/2021 08:23:47	1	23	269886	732453	1	219	732044	735369	1	220	734164	2	306	inorganic	correct	735702	1	220	734164	739717	1	222	738404	4	360	740100	1	222	738404	743249	1	224	742644	3	778	inorganic	correct	744049	1	224	742644	747348	1	226	746884	4	684	748081	1	226	746884	maw_04767.png	maw_Schlauchboot.png	maw_Pingpongschlaeger.png	ok
69606	06/23/2021 08:24:09	1	24	269886	752046	1	228	751124	755245	1	229	753244	3	1482	organic	correct	756761	1	230	755364	760294	1	232	759604	4	276	760593	1	232	759604	765558	1	234	763844	3	660	organic	correct	766242	1	235	765964	770290	1	237	770204	3	808	771123	1	237	770204	moh_06446.png	moh_Muecke.png	moh_Birne.png	ok
69606	06/23/2021 08:24:30	1	25	269886	774072	1	238	772324	776988	1	240	776564	2	357	inorganic	correct	777371	1	240	776564	780387	1	241	778684	4	520	780937	1	242	780803	785668	1	244	785044	3	1595	inorganic	correct	787284	1	245	787164	790850	1	246	789284	4	285	791166	1	246	789284	fab_06018.png	fab_Staubsauger.png	fab_Kinderwagen.png	ok
69606	06/23/2021 08:24:49	1	26	269886	794715	1	248	793524	797164	1	249	795643	2	348	inorganic	correct	797564	1	249	795643	800963	1	251	799884	4	849	801846	1	251	799884	805912	1	253	804123	3	863	inorganic	correct	806795	1	254	806244	811143	1	256	810484	4	552	811726	1	256	810484	mau_49693.png	mau_Wasserventil.png	mau_Leiter.png	ok
69606	06/23/2021 08:25:09	1	27	269886	814509	1	257	812603	817491	1	259	816844	3	709	inorganic	incorrect	818224	1	259	816844	821373	1	261	821083	3	301	821706	1	261	821083	825638	1	263	825324	2	1401	inorganic	correct	827071	1	263	825324	830437	1	265	829563	4	381	830853	1	265	829563	mai_06530.png	mai_Auto.png	mai_Gewehr.png	ok
69606	06/23/2021 08:25:33	1	28	269886	834452	1	267	833804	837767	1	268	835923	2	567	organic	incorrect	838367	1	269	838043	842766	1	271	842283	2	318	843116	1	271	842283	847697	1	273	846523	2	2635	organic	correct	850363	1	274	848644	853279	1	276	852883	4	1255	854562	1	276	852883	for_15187.png	for_Mandel.png	for_Seehund.png	ok
69606	06/23/2021 08:25:53	1	29	269886	858544	1	278	857124	861176	1	279	859243	2	1713	inorganic	correct	862926	1	280	861363	865625	1	281	863484	2	339	865991	1	282	865603	869440	1	283	867723	3	1774	inorganic	correct	871240	1	284	869843	874388	1	286	874083	4	289	874705	1	286	874083	mak_00987.png	mak_Socken.png	mak_Rucksack.png	ok
69606	06/23/2021 08:26:14	1	30	269886	877921	1	287	876203	880253	1	288	878323	2	791	inorganic	correct	881070	1	289	880444	885318	1	291	884683	2	320	885668	1	291	884683	889700	1	293	888923	3	1948	inorganic	correct	891683	1	294	891043	894615	1	295	893163	4	361	895015	1	295	893163	fax_14883.png	fax_Fahrrad.png	fax_Klebeband.png	ok
69606	06/23/2021 08:26:33	1	31	269886	899230	1	297	897403	901113	1	298	899523	2	370	inorganic	correct	901513	1	298	899523	905028	1	300	903763	4	1886	906944	1	301	905883	909743	1	302	908003	3	498	inorganic	correct	910276	1	303	910123	914492	1	305	914363	4	466	914991	1	305	914363	map_41499.png	map_Pfeife.png	map_Globus.png	ok
69606	06/23/2021 08:26:52	1	32	269886	917990	1	306	916483	920606	1	307	918603	2	617	inorganic	correct	921256	1	308	920723	924722	1	309	922843	4	620	925371	1	310	924963	928237	1	311	927082	3	618	inorganic	correct	928887	1	311	927082	932985	1	313	931323	4	459	933469	1	314	933443	fag_06539.png	fag_Portemonnaie.png	fag_Geschenk.png	ok
69606	06/23/2021 08:27:13	1	33	269886	936718	1	315	935562	938667	1	316	937683	2	1711	inorganic	correct	940400	1	317	939803	943948	1	318	941923	3	1255	945248	1	319	944043	948963	1	321	948283	2	971	inorganic	miss	949963	1	321	948283	953329	1	323	952523	3	1919	955278	1	324	954643	mal_04470.png	mal_Kugelschreiber.png	mal_Drucker.png	ok
69606	06/23/2021 08:27:34	1	34	269886	957927	1	325	956763	960643	1	326	958882	3	2099	inorganic	incorrect	962775	1	327	961003	964875	1	328	963123	2	321	965225	1	328	963123	970006	1	331	969483	2	1967	inorganic	correct	972006	1	332	971603	974721	1	333	973722	2	867	975621	1	333	973722	fal_07906.png	fal_Buegeleisen.png	fal_Korb.png	ok
69606	06/23/2021 08:27:57	1	35	269886	979370	1	335	977963	981752	1	336	980083	3	1313	organic	correct	983102	1	337	982202	987034	1	339	986443	3	284	987350	1	339	986443	991232	1	341	990682	2	1670	organic	correct	992949	1	342	992802	996681	1	343	994923	4	308	997031	1	343	994923	foe_08236.png	foe_Adler.png	foe_Tannenzapfen.png	ok
69606	06/23/2021 08:28:16	1	36	269886	1001812	1	346	1001283	1004295	1	347	1003403	3	1032	organic	correct	1005361	1	347	1003403	1007943	7	349	1007642	4	446	1008427	1	349	1007642	1012259	1	351	1011882	2	453	organic	correct	1012742	1	351	1011882	1016591	1	353	1016122	4	1099	1017724	1	353	1016122	fou_17118.png	fou_Schmetterling.png	fou_Feige.png	ok
69606	06/23/2021 08:28:36	1	37	269886	1020856	1	355	1020362	1023088	1	356	1022482	3	911	organic	correct	1024021	1	356	1022482	1026954	1	358	1026723	4	641	1027620	1	358	1026723	1032235	1	360	1030962	3	814	organic	correct	1033085	1	360	1030962	1036117	1	362	1035202	4	408	1036551	1	362	1035202	mof_02408.png	mof_Spaghetti.png	mof_Hahn.png	ok
69606	06/23/2021 08:28:56	1	38	269886	1041316	1	364	1039442	1043032	1	365	1041562	2	890	inorganic	correct	1043965	1	366	1043682	1048097	1	368	1047922	4	253	1048380	1	368	1047922	1052728	1	370	1052162	2	433	inorganic	correct	1053195	1	370	1052162	1057394	1	372	1056402	4	500	1057927	1	372	1056402	faw_14215.png	faw_Hufeisen.png	faw_Kuechenmaschine.png	ok
69606	06/23/2021 08:29:16	1	39	269886	1061009	1	374	1060642	1063142	1	375	1062762	2	1080	inorganic	correct	1064258	1	375	1062762	1067207	1	377	1067002	2	291	1067523	1	377	1067002	1072339	1	379	1071242	3	1868	inorganic	correct	1074238	1	380	1073362	1076820	1	381	1075482	3	329	1077187	1	381	1075482	mao_11634.png	mao_Stempel.png	mao_Kegel.png	ok
69606	06/23/2021 08:29:38	1	40	269886	1080886	1	383	1079722	1084235	1	385	1083962	2	225	inorganic	correct	1084484	1	385	1083962	1089283	1	387	1088202	4	394	1089699	1	387	1088202	1093948	1	389	1092442	2	586	inorganic	correct	1094581	1	389	1092442	1098246	1	391	1096682	4	703	1098980	1	392	1098802	fac_02146.png	fac_Haarbuerste.png	fac_Ohrring.png	ok
69606	06/23/2021 08:29:59	1	41	269886	1103478	1	394	1103042	1105994	1	395	1105161	2	332	organic	incorrect	1106360	1	395	1105161	1109743	1	397	1109402	3	352	1110126	1	397	1109402	1114474	1	399	1113641	2	1339	organic	correct	1115841	1	400	1115762	1119006	1	401	1117882	4	621	1119656	1	401	1117882	foc_02157.png	foc_Eule.png	foc_Brombeere.png	ok
69606	06/23/2021 08:30:20	1	42	269886	1123971	1	403	1122121	1127437	1	405	1126362	2	326	inorganic	correct	1127787	1	405	1126362	1130802	1	407	1130601	3	378	1131202	1	407	1130601	1135351	1	409	1134842	2	1594	inorganic	correct	1136967	1	409	1134842	1139549	1	411	1139081	4	1425	1141032	1	411	1139081	fap_16329.png	fap_Knopf.png	fap_Kissen.png	ok
69606	06/23/2021 08:30:39	1	43	269886	1144881	1	413	1143322	1146847	1	414	1145441	2	1391	organic	incorrect	1148263	1	415	1147561	1150945	1	416	1149682	2	902	1151878	1	417	1151802	1154378	1	418	1153922	2	2183	organic	correct	1156593	1	419	1156042	1159059	1	420	1158162	2	545	1159626	1	420	1158162	mon_65798.png	mon_Fuchs.png	mon_Kartoffel.png	ok
69606	06/23/2021 08:31:00	1	44	269886	1163558	1	422	1162401	1166940	1	424	1166642	3	981	inorganic	incorrect	1167956	1	424	1166642	1171905	1	426	1170882	2	409	1172338	1	426	1170882	1175687	1	428	1175122	2	1566	inorganic	correct	1177287	1	429	1177242	1181269	1	430	1179362	4	387	1181685	1	431	1181483	far_00736.png	far_Giesskanne.png	far_Heissluftballon.png	ok
69606	06/23/2021 08:31:20	1	45	269886	1184934	1	432	1183602	1188333	1	434	1187842	2	333	organic	incorrect	1188699	1	434	1187842	1192748	1	436	1192082	2	1292	1194081	1	436	1192082	1197463	1	438	1196322	3	2523	organic	correct	1200012	1	439	1198442	1201612	1	440	1200562	3	1358	1202995	1	441	1202682	foi_03389.png	foi_Apfelkuchen.png	foi_Pflanze.png	ok
69606	06/23/2021 08:31:40	1	46	269886	1205244	1	442	1204802	1208026	1	443	1206922	2	319	inorganic	correct	1208376	1	443	1206922	1211492	1	445	1211162	4	1031	1212558	1	445	1211162	1215940	1	447	1215402	3	767	inorganic	correct	1216740	1	447	1215402	1221322	1	449	1219642	4	663	1222021	1	450	1221762	mac_59169.png	mac_Dartpfeil.png	mac_Medaille.png	ok
69606	06/23/2021 08:32:01	1	47	269886	1225337	1	451	1223882	1227969	1	452	1226002	3	514	organic	correct	1228519	1	453	1228121	1231802	1	454	1230242	4	301	1232135	1	454	1230242	1236117	1	456	1234482	3	693	organic	correct	1236833	1	457	1236601	1240649	1	458	1238722	4	646	1241348	1	459	1240842	mom_59361.png	mom_Ei.png	mom_Loewe.png	ok
69606	06/23/2021 08:32:21	1	48	269886	1245580	1	461	1245081	1247563	1	462	1247202	3	340	organic	correct	1247929	1	462	1247202	1251478	1	464	1251441	4	300	1251811	1	464	1251441	1256443	1	466	1255682	3	835	organic	correct	1257310	1	466	1255682	1260875	1	468	1259921	3	1375	1262275	1	469	1262042	fok_09378.png	fok_Kaenguruh.png	fok_Palme.png	ok
69606	06/23/2021 08:32:39	1	49	269886	1265723	1	470	1264162	1267390	1	471	1266282	3	1111	inorganic	incorrect	1268522	1	472	1268401	1270788	1	473	1270522	3	600	1271422	1	473	1270522	1275120	1	475	1274761	3	1402	inorganic	correct	1276553	1	475	1274761	1279552	1	477	1279002	4	449	1280035	1	477	1279002	maj_01546.png	maj_Computermaus.png	maj_Krawatte.png	ok
69606	06/23/2021 08:32:58	1	50	269886	1283584	1	479	1283241	1285234	1	479	1283241	3	1040	organic	correct	1286300	1	480	1285361	1290049	1	482	1289602	4	967	1291065	1	482	1289602	1295380	1	484	1293841	2	1039	organic	correct	1296446	1	485	1295962	1299745	1	486	1298081	4	893	1300662	1	487	1300201	moj_11860.png	moj_Blatt.png	moj_Walnuss.png	ok
69606	06/23/2021 08:33:18	1	51	269886	1303244	1	488	1302321	1305343	1	489	1304442	2	444	organic	incorrect	1305810	1	489	1304442	1310308	1	491	1308681	2	317	1310658	1	491	1308681	1314374	1	493	1312921	3	1586	organic	correct	1315990	1	494	1315041	1319205	1	495	1317161	4	313	1319555	1	496	1319282	mol_11363.png	mol_Schimpanse.png	mol_Pizza.png	ok
69606	06/23/2021 08:33:38	1	52	269886	1323387	1	497	1321401	1325237	1	498	1323521	3	2286	organic	correct	1327553	1	499	1325641	1329769	1	500	1327762	3	1188	1330985	1	501	1329881	1334933	1	503	1334121	2	1248	organic	correct	1336216	1	503	1334121	1339132	1	505	1338361	4	313	1339499	1	505	1338361	mou_06524.png	mou_Kraehe.png	mou_Croissant.png	ok
69606	06/23/2021 08:33:56	1	53	269886	1342897	1	507	1342601	1345097	1	508	1344721	3	834	organic	correct	1345963	1	508	1344721	1349545	1	510	1348961	4	1034	1350612	1	510	1348961	1353011	1	511	1351081	3	716	organic	correct	1353760	1	512	1353201	1357159	1	513	1355321	4	1482	1358675	1	514	1357441	mog_03277.png	mog_Pilz.png	mog_Fledermaus.png	ok
69606	06/23/2021 08:34:18	1	54	269886	1361308	1	515	1359561	1363774	1	516	1361681	3	346	organic	correct	1364157	1	517	1363801	1368206	1	519	1368041	4	669	1368905	1	519	1368041	1372604	1	521	1372281	2	748	organic	correct	1373387	1	521	1372281	1377602	1	523	1376521	4	1275	1378902	1	524	1378641	moe_23630.png	moe_Pommes.png	moe_Waschbaer.png	ok
69606	06/23/2021 08:34:37	1	55	269886	1382617	1	525	1380761	1385117	1	527	1385001	3	2329	organic	correct	1387499	1	528	1387121	1388615	1	528	1387121	4	1312	1389982	1	529	1389241	1392714	1	530	1391360	2	1233	organic	correct	1393980	1	531	1393481	1397246	1	532	1395601	3	838	1398112	1	533	1397721	mob_22833.png	mob_Kiwi.png	mob_Igel.png	ok
69606	06/23/2021 08:34:55	1	56	269886	1401594	1	534	1399841	1403627	1	535	1401961	2	317	inorganic	correct	1403977	1	535	1401961	1406993	1	537	1406200	4	301	1407326	1	537	1406200	1410758	1	539	1410441	3	839	inorganic	correct	1411624	1	539	1410441	1416239	1	541	1414680	4	319	1416589	1	541	1414680	mae_36426.png	mae_Taschenrechner.png	mae_Schach.png	ok
69606	06/23/2021 08:35:14	1	57	269886	1419622	1	543	1418921	1422071	1	544	1421040	3	750	organic	correct	1422854	1	544	1421040	1426769	1	546	1425281	4	546	1427352	1	546	1425281	1431584	1	548	1429520	2	845	organic	correct	1432451	1	549	1431640	1435750	1	550	1433761	4	1185	1436999	1	551	1435881	foq_17341.png	foq_Fenchel.png	foq_Pinguin.png	ok
69606	06/23/2021 08:35:37	1	58	269886	1439448	1	552	1438000	1441764	1	553	1440120	2	1416	inorganic	correct	1443214	1	554	1442241	1447046	1	556	1446480	3	980	1448062	1	556	1446480	1452011	1	558	1450721	2	999	inorganic	correct	1453044	1	559	1452840	1457326	1	561	1457081	4	254	1457609	1	561	1457081	faj_07849.png	faj_Parfuem.png	faj_Schuh.png	ok
69606	06/23/2021 08:35:58	1	59	269886	1462141	1	563	1461320	1464523	1	564	1463440	2	437	inorganic	correct	1464990	1	564	1463440	1469571	1	566	1467680	2	1076	1470671	1	567	1469800	1473287	1	568	1471920	3	1061	inorganic	correct	1474370	1	569	1474041	1478335	1	571	1478280	4	291	1478652	1	571	1478280	mas_41937.png	mas_Tisch.png	mas_Bueroklammer.png	ok
69606	06/23/2021 08:36:18	1	60	269886	1483317	1	573	1482520	1485699	1	574	1484640	3	1617	organic	correct	1487365	1	575	1486760	1490215	1	576	1488880	3	731	1490981	1	576	1488880	1493980	1	578	1493120	2	893	organic	correct	1494896	1	578	1493120	1498828	1	580	1497361	4	243	1499095	1	580	1497361	mot_69770.png	mot_Hotdog.png	mot_Bison.png	ok
69606	06/23/2021 08:36:39	1	61	269886	1503377	1	582	1501600	1505943	1	584	1505840	2	486	organic	incorrect	1506459	1	584	1505840	1510174	1	586	1510080	2	397	1510608	1	586	1510080	1515439	1	588	1514320	2	977	organic	correct	1516439	1	588	1514320	1520638	1	590	1518560	4	235	1520904	1	591	1520680	fop_07937.png	fop_Mango.png	fop_Koala.png	ok
69606	06/23/2021 08:37:00	1	62	269886	1524336	1	592	1522800	1526952	1	593	1524920	2	1670	organic	incorrect	1528652	1	594	1527040	1532017	1	596	1531280	2	892	1532933	1	596	1531280	1536915	1	598	1535520	3	1099	organic	correct	1538065	1	599	1537639	1540864	1	600	1539760	4	346	1541247	1	600	1539760	fot_06092.png	fot_Taube.png	fot_Salat.png	ok
69606	06/23/2021 08:37:20	1	63	269886	1545229	1	602	1543999	1548295	1	604	1548240	2	950	inorganic	correct	1549278	1	604	1548240	1552993	1	606	1552479	4	292	1553310	1	606	1552479	1557375	1	608	1556720	3	815	inorganic	correct	1558225	1	608	1556720	1561024	1	610	1560959	4	1175	1562224	1	610	1560959	fan_18894.png	fan_Klavier.png	fan_Lampe.png	ok
69606	06/23/2021 08:37:38	1	64	269886	1564823	1	611	1563080	1567039	1	612	1565200	2	1903	inorganic	correct	1568971	1	613	1567320	1571637	1	615	1571560	2	286	1571954	1	615	1571560	1575453	1	616	1573680	2	799	inorganic	correct	1576286	1	617	1575799	1579668	1	618	1577919	4	309	1580001	1	618	1577919	fat_14140.png	fat_Kleiderbuegel.png	fat_Einkaufswagen.png	ok
69606	06/23/2021 08:37:56	1	65	269886	1583117	1	620	1582160	1585333	1	621	1584279	2	1801	organic	incorrect	1587182	1	622	1586399	1589514	1	623	1588520	2	368	1589914	1	623	1588520	1593147	1	625	1592759	3	956	organic	correct	1594130	1	625	1592759	1597828	1	627	1597000	4	343	1598195	1	627	1597000	mos_23223.png	mos_Traube.png	mos_Eintagsfliege.png	ok
69606	06/23/2021 08:38:16	1	66	269886	1601310	1	629	1601239	1603443	1	630	1603360	2	2321	inorganic	correct	1605792	1	631	1605480	1608225	1	632	1607599	2	293	1608541	1	632	1607599	1612440	1	634	1611840	2	1144	inorganic	correct	1613606	1	634	1611840	1617022	1	636	1616079	4	339	1617388	1	636	1616079	mat_23754.png	mat_Feuerzeug.png	mat_Helm.png	ok
69606	06/23/2021 08:38:35	1	67	269886	1621387	1	638	1620320	1623453	1	639	1622439	3	2200	organic	correct	1625686	1	640	1624559	1627518	1	641	1626679	2	922	1628468	1	641	1626679	1631784	1	643	1630919	3	1380	organic	correct	1633200	1	644	1633039	1636382	1	645	1635159	4	328	1636749	1	645	1635159	foa_00426.png	foa_Aubergine.png	foa_Marienkaefer.png	ok
69606	06/23/2021 08:38:55	1	68	269886	1639881	1	647	1639399	1642980	1	648	1641519	3	592	organic	correct	1643596	1	648	1641519	1647978	1	651	1647879	4	233	1648245	1	651	1647879	1651360	1	652	1649999	2	791	organic	correct	1652177	1	653	1652119	1656775	1	655	1656359	4	386	1657192	1	655	1656359	foj_08937.png	foj_Rose.png	foj_Waffel.png	ok
69606	06/23/2021 08:39:15	1	69	269886	1660324	1	656	1658479	1662940	1	658	1662719	3	1443	organic	correct	1664406	1	658	1662719	1666805	1	659	1664839	3	1230	1668071	1	660	1666959	1671370	1	662	1671199	2	1076	organic	correct	1672470	1	662	1671199	1675752	1	664	1675438	4	811	1676585	1	664	1675438	fov_15193.png	fov_Fisch.png	fov_Zucchini.png	ok
69606	06/23/2021 08:39:36	1	70	269886	1680434	1	666	1679679	1683933	1	667	1681799	2	231	inorganic	correct	1684216	1	668	1683919	1689164	1	670	1688159	4	260	1689447	1	670	1688159	1693379	1	672	1692399	2	383	inorganic	correct	1693796	1	672	1692399	1697145	1	674	1696639	4	420	1697595	1	674	1696639	fai_07637.png	fai_Foehn.png	fai_Kommode.png	ok
69606	06/23/2021 08:39:57	1	71	269886	1701227	1	676	1700879	1703876	1	677	1702999	3	468	inorganic	incorrect	1704376	1	677	1702999	1709207	1	679	1707238	3	300	1709541	1	680	1709359	1713439	1	681	1711479	3	2080	inorganic	correct	1715555	1	682	1713599	1718005	1	684	1717839	4	342	1718371	1	684	1717839	maw_22459.png	maw_Pingpongschlaeger.png	maw_Schlauchboot.png	ok
69606	06/23/2021 08:40:18	1	72	269886	1722486	1	686	1722078	1725435	1	687	1724198	3	250	organic	correct	1725719	1	687	1724198	1730467	1	689	1728439	4	255	1730750	1	690	1730558	1734849	1	691	1732678	3	1030	organic	correct	1735932	1	692	1734799	1738981	1	693	1736918	4	293	1739297	1	694	1739038	moh_07125.png	moh_Birne.png	moh_Muecke.png	ok
69606	06/23/2021 08:40:39	1	73	269886	1742630	1	695	1741159	1744945	1	696	1743279	2	290	inorganic	correct	1745262	1	696	1743279	1749261	1	698	1747518	4	870	1750160	1	699	1749639	1754042	1	701	1753878	2	680	inorganic	correct	1754742	1	701	1753878	1759507	1	703	1758120	4	488	1760024	1	703	1758120	mai_23761.png	mai_Gewehr.png	mai_Auto.png	ok
69606	06/23/2021 08:41:00	1	74	269886	1764506	1	705	1762358	1767355	1	707	1766599	3	632	organic	correct	1768021	1	707	1766599	1771553	1	709	1770838	4	703	1772286	1	709	1770838	1776418	1	711	1775080	3	671	organic	correct	1777118	1	711	1775080	1781233	1	713	1779318	4	785	1782083	1	714	1781438	for_15880.png	for_Seehund.png	for_Mandel.png	ok
69606	06/23/2021 08:41:19	1	75	269886	1784815	1	715	1783558	1786931	1	716	1785678	2	1154	inorganic	correct	1788114	1	717	1787798	1791113	1	718	1789919	4	814	1791963	1	718	1789919	1795545	1	720	1794158	3	633	inorganic	correct	1796212	1	720	1794158	1800543	1	722	1798398	4	592	1801160	1	723	1800518	fab_06286.png	fab_Kinderwagen.png	fab_Staubsauger.png	ok
69606	06/23/2021 08:41:40	1	76	269886	1804492	1	724	1802638	1806575	1	725	1804758	2	358	inorganic	correct	1806958	1	726	1806878	1810823	1	727	1808998	4	883	1811740	1	728	1811118	1815688	1	730	1815358	3	635	inorganic	correct	1816355	1	730	1815358	1820004	1	732	1819599	4	473	1820503	1	732	1819599	mau_58144.png	mau_Leiter.png	mau_Wasserventil.png	ok
69606	06/23/2021 08:41:58	1	77	269886	1824919	1	734	1823838	1827234	1	735	1825958	2	2084	inorganic	correct	1829350	1	736	1828078	1830600	1	737	1830199	3	199	1830833	1	737	1830199	1834132	1	738	1832318	3	1460	inorganic	correct	1835632	1	739	1834438	1838997	1	741	1838678	4	309	1839330	1	741	1838678	fax_15310.png	fax_Klebeband.png	fax_Fahrrad.png	ok
69606	06/23/2021 08:42:18	1	78	269886	1842613	1	742	1840798	1845778	1	744	1845037	2	228	inorganic	correct	1846028	1	744	1845037	1850127	1	746	1849279	4	265	1850427	1	746	1849279	1854375	1	748	1853518	2	500	inorganic	correct	1854908	1	748	1853518	1858890	1	750	1857759	4	327	1859240	1	750	1857759	mak_03979.png	mak_Rucksack.png	mak_Socken.png	ok
69606	06/23/2021 08:42:38	1	79	269886	1862739	1	752	1861998	1865055	1	753	1864119	2	312	inorganic	correct	1865405	1	753	1864119	1869237	1	755	1868358	4	355	1869620	1	755	1868358	1873819	1	757	1872599	3	554	inorganic	correct	1874402	1	757	1872599	1878317	1	759	1876838	4	264	1878617	1	759	1876838	fag_06551.png	fag_Geschenk.png	fag_Portemonnaie.png	ok
69606	06/23/2021 08:43:00	1	80	269886	1883382	1	762	1883198	1886281	1	763	1885318	3	561	inorganic	incorrect	1886864	1	763	1885318	1890030	1	765	1889559	2	313	1890380	1	765	1889559	1894962	1	767	1893798	2	712	inorganic	correct	1895695	1	767	1893798	1899893	1	769	1898039	4	509	1900426	1	770	1900158	map_49576.png	map_Globus.png	map_Pfeife.png	ok
69606	06/23/2021 08:43:21	1	81	269886	1904908	1	772	1904399	1908440	1	773	1906518	2	433	inorganic	correct	1908907	1	774	1908638	1913772	1	776	1912879	2	905	1914705	1	776	1912879	1918054	1	778	1917118	2	1785	inorganic	correct	1919870	1	779	1919238	1922486	1	780	1921358	4	710	1923219	1	780	1921358	fal_07977.png	fal_Korb.png	fal_Buegeleisen.png	ok
69606	06/23/2021 08:43:41	1	82	269886	1926118	1	782	1925598	1928050	1	783	1927719	3	1619	inorganic	incorrect	1929700	1	783	1927719	1931999	1	785	1931958	2	392	1932432	1	785	1931958	1936814	1	787	1936199	3	1293	inorganic	correct	1938130	1	787	1936199	1942146	1	789	1940438	4	510	1942679	1	790	1942558	mal_20552.png	mal_Drucker.png	mal_Kugelschreiber.png	ok
69606	06/23/2021 08:44:00	1	83	269886	1945878	1	791	1944678	1948777	1	792	1946798	3	389	organic	correct	1949193	1	793	1948918	1953209	1	795	1953158	4	333	1953575	1	795	1953158	1957124	1	796	1955278	3	831	organic	correct	1957990	1	797	1957398	1961123	1	798	1959518	4	397	1961556	1	798	1959518	fou_18966.png	fou_Feige.png	fou_Schmetterling.png	ok
69606	06/23/2021 08:44:19	1	84	269886	1965521	1	800	1963758	1968204	1	802	1967998	3	432	organic	correct	1968670	1	802	1967998	1973152	1	804	1972238	4	298	1973485	1	804	1972238	1976801	1	806	1976478	3	577	organic	correct	1977401	1	806	1976478	1980416	1	807	1978598	4	718	1981183	1	808	1980718	foe_08514.png	foe_Tannenzapfen.png	foe_Adler.png	ok
69606	06/23/2021 08:44:38	1	85	269886	1984048	1	809	1982838	1986531	1	810	1984958	2	387	inorganic	correct	1986947	1	810	1984958	1990463	1	812	1989198	2	703	1991196	1	812	1989198	1994628	1	814	1993438	2	703	inorganic	correct	1995361	1	814	1993438	1999410	1	816	1997678	4	1092	2000526	1	817	1999797	faw_14685.png	faw_Kuechenmaschine.png	faw_Hufeisen.png	ok
69606	06/23/2021 08:45:00	1	86	269886	2003375	1	818	2001918	2006307	1	820	2006157	3	934	inorganic	incorrect	2007274	1	820	2006157	2011306	1	822	2010398	3	256	2011589	1	822	2010398	2015688	1	824	2014637	2	786	inorganic	correct	2016504	1	824	2014637	2020536	1	826	2018878	4	351	2020919	1	826	2018878	mao_19000.png	mao_Kegel.png	mao_Stempel.png	ok
69606	06/23/2021 08:45:19	1	87	269886	2025084	1	828	2023117	2027350	1	829	2025238	3	700	organic	correct	2028083	1	830	2027358	2031766	1	832	2031597	4	282	2032099	1	832	2031597	2035414	1	833	2033718	3	656	organic	correct	2036097	1	834	2035838	2040563	1	836	2040077	4	350	2040946	1	836	2040077	mof_06901.png	mof_Hahn.png	mof_Spaghetti.png	ok
69606	06/23/2021 08:45:37	1	88	269886	2044261	1	837	2042198	2046944	1	839	2046437	2	255	inorganic	correct	2047227	1	839	2046437	2050676	1	840	2048557	4	247	2050959	1	841	2050678	2054058	1	842	2052797	2	568	inorganic	correct	2054658	1	842	2052797	2057840	1	844	2057037	4	1114	2058990	1	844	2057037	fac_02970.png	fac_Ohrring.png	fac_Haarbuerste.png	ok
69606	06/23/2021 08:45:56	1	89	269886	2062172	1	846	2061277	2065054	1	847	2063397	3	777	organic	correct	2065854	1	848	2065518	2069486	1	849	2067638	3	343	2069853	1	850	2069757	2072918	1	851	2071877	3	1113	organic	correct	2074051	1	852	2073998	2077134	1	853	2076117	3	901	2078083	1	853	2076117	mon_69587.png	mon_Kartoffel.png	mon_Fuchs.png	ok
69606	06/23/2021 08:46:16	1	90	269886	2080966	1	855	2080357	2083332	1	856	2082478	2	252	inorganic	correct	2083615	1	856	2082478	2086864	1	858	2086717	4	348	2087247	1	858	2086717	2091379	1	860	2090957	2	476	inorganic	correct	2091879	1	860	2090957	2096460	1	862	2095197	4	291	2096777	1	862	2095197	far_06518.png	far_Heissluftballon.png	far_Giesskanne.png	ok
69606	06/23/2021 08:46:36	1	91	269886	2100792	1	864	2099437	2102675	1	865	2101557	2	321	inorganic	correct	2103025	1	865	2101557	2106057	1	867	2105797	4	1073	2107157	1	867	2105797	2110489	1	869	2110037	2	682	inorganic	correct	2111205	1	869	2110037	2115937	1	871	2114277	4	375	2116337	1	871	2114277	fap_17119.png	fap_Kissen.png	fap_Knopf.png	ok
69606	06/23/2021 08:46:55	1	92	269886	2121185	1	874	2120637	2124234	1	875	2122757	3	347	organic	correct	2124618	1	875	2122757	2128583	1	877	2126997	4	334	2128966	1	877	2126997	2132148	1	879	2131237	2	592	organic	correct	2132765	1	879	2131237	2135947	1	880	2133357	4	626	2136597	1	880	2133357	foc_02664.png	foc_Brombeere.png	foc_Eule.png	ok
69606	06/23/2021 08:47:16	1	93	269886	2140146	1	882	2139717	2142762	1	883	2141837	2	532	inorganic	correct	2143328	1	883	2141837	2147027	1	885	2146076	2	774	2147826	1	885	2146076	2151892	1	887	2150317	2	878	inorganic	correct	2152791	1	888	2152436	2155907	1	889	2154556	4	443	2156374	1	889	2154556	mac_59752.png	mac_Medaille.png	mac_Dartpfeil.png	ok
69606	06/23/2021 08:47:37	1	94	269886	2160639	1	891	2158797	2162572	1	892	2160916	3	950	organic	correct	2163555	1	893	2163037	2167320	1	895	2167277	3	440	2167786	1	895	2167277	2171668	1	897	2171517	2	2516	organic	correct	2174218	1	898	2173637	2177033	1	899	2175756	2	2258	2179333	1	900	2177876	foi_05187.png	foi_Pflanze.png	foi_Apfelkuchen.png	ok
69606	06/23/2021 08:47:56	1	95	269886	2182015	1	901	2179997	2184281	1	903	2184236	2	1370	organic	incorrect	2185680	1	903	2184236	2188113	1	904	2186356	2	366	2188513	1	905	2188477	2192212	1	906	2190597	2	1253	organic	correct	2193494	1	907	2192716	2196260	1	908	2194836	4	1042	2197327	1	909	2196957	fok_09860.png	fok_Palme.png	fok_Kaenguruh.png	ok
69606	06/23/2021 08:48:16	1	96	269886	2201159	1	910	2199076	2203408	1	912	2203317	3	399	organic	correct	2203841	1	912	2203317	2208190	1	914	2207556	4	392	2208606	1	914	2207556	2212821	1	916	2211797	2	589	organic	correct	2213438	1	916	2211797	2217220	1	918	2216036	4	504	2217753	1	918	2216036	mom_59641.png	mom_Loewe.png	mom_Ei.png	ok
