ID	DateTime	Run	Retrieval_Trial	FaceRecog_OnsetTime	FaceRecog_OnsetTimeUncertainty	FaceRecog_fMRI_Pulse	FaceRecog_fMRI_PulseTime	Assoc_Retrieval_OnsetTime	Assoc_Retrieval_OnsetTimeUncertainty	Assoc_Retrieval_fMRI_Pulse	Assoc_Retrieval_fMRI_PulseTime	Assoc_Retrieval_Pressed_Button	Assoc_Retrieval_RT	Assoc_Retrieval_Response_Category	Assoc_Retrieval_Accuracy	Assoc_Retrieval_Feedback_OnsetTime	Assoc_Retrieval_Feedback_OnsetTimeUncertainty	Assoc_Retrieval_Feedback_fMRI_Pulse	Assoc_Retrieval_Feedback_fMRI_PulseTime	Retrieval_consc_Rating_OnsetTime	Retrieval_consc_Rating_OnsetTimeUncertainty	Retrieval_consc_Rating_fMRI_Pulse	Retrieval_consc_Rating_fMRI_PulseTime	Retrieval_consc_Rating_Pressed_Button	Retrieval_consc_Rating_RT	Retrieval_consc_Rating_Feedback_OnsetTime	Retrieval_consc_Rating_Feedback_OnsetTimeUncertainty	Retrieval_consc_Rating_Feedback_fMRI_Pulse	Retrieval_consc_Rating_Feedback_fMRI_PulseTime	Presented_Person	Presented_Target	Presented_Lure	num_pulse	fifth_pulse_time	TrialStatus
69606	06/22/2021 08:56:48	1	1	1778967	1	665	1778041	1782350	1	667	1782280	0	0	organic	miss	1782350	1	668	1784401	1786648	1	669	1786521	2	1790	1788464	1	669	1786521	mou_01862.png	mou_Croissant.png	mou_Kraehe.png	665	1778041	ok
69606	06/22/2021 08:57:00	1	2	1791580	1	671	1790760	1793362	1	672	1792881	2	2510	organic	incorrect	1795895	1	673	1795000	1798411	1	674	1797120	2	962	1799410	1	675	1799241	moj_11821.png	moj_Walnuss.png	moj_Blatt.png	665	1778041	ok
69606	06/22/2021 08:57:11	1	3	1803609	1	677	1803480	1805492	1	677	1803480	2	526	inorganic	correct	1806058	1	678	1805600	1809157	1	679	1807721	4	992	1810173	1	680	1809841	maj_01545.png	maj_Krawatte.png	maj_Computermaus.png	665	1778041	ok
69606	06/22/2021 08:57:22	1	4	1814322	1	682	1814080	1816588	1	683	1816201	3	1902	organic	correct	1818521	1	684	1818320	1820937	1	685	1820440	2	963	1821936	1	685	1820440	mol_07679.png	mol_Pizza.png	mol_Schimpanse.png	665	1778041	ok
69606	06/22/2021 08:57:35	1	5	1825685	1	687	1824681	1828784	1	688	1826800	2	2723	inorganic	correct	1831533	1	690	1831040	1833699	1	691	1833161	3	1046	1834782	1	691	1833161	mae_01010.png	mae_Schach.png	mae_Taschenrechner.png	665	1778041	ok
69606	06/22/2021 08:57:46	1	6	1838864	1	693	1837400	1840780	1	694	1839520	2	1624	organic	incorrect	1842429	1	695	1841640	1844595	1	696	1843760	2	1001	1845628	1	696	1843760	mog_03090.png	mog_Fledermaus.png	mog_Pilz.png	665	1778041	ok
69606	06/22/2021 08:57:57	1	7	1849694	1	698	1848001	1851560	1	699	1850120	3	1775	organic	correct	1853376	1	700	1852240	1854992	1	701	1854360	3	1261	1856275	1	701	1854360	mob_00760.png	mob_Igel.png	mob_Kiwi.png	665	1778041	ok
69606	06/22/2021 08:58:08	1	8	1860073	1	703	1858600	1863156	1	705	1862840	3	2552	organic	correct	1865738	1	706	1864960	1867221	1	707	1867080	3	1407	1868654	1	707	1867080	moe_02012.png	moe_Waschbaer.png	moe_Pommes.png	665	1778041	ok
69606	06/22/2021 08:58:20	1	9	1871586	1	709	1871320	1875118	1	710	1873440	3	669	organic	correct	1875818	1	711	1875560	1879967	1	713	1879799	4	382	1880383	1	713	1879799	mot_69374.png	mot_Bison.png	mot_Hotdog.png	665	1778041	ok
69606	06/22/2021 08:58:30	1	10	1883882	1	714	1881920	1886531	1	716	1886160	2	791	inorganic	correct	1887348	1	716	1886160	1889963	1	717	1888280	4	745	1890746	1	718	1890400	faj_07783.png	faj_Schuh.png	faj_Parfuem.png	665	1778041	ok
69606	06/22/2021 08:58:41	1	11	1893845	1	719	1892520	1896111	1	720	1894640	3	2205	inorganic	incorrect	1898344	1	721	1896760	1900576	1	722	1898880	3	524	1901143	1	723	1901000	mas_41366.png	mas_Bueroklammer.png	mas_Tisch.png	665	1778041	ok
69606	06/22/2021 08:58:51	1	12	1904025	1	724	1903119	1905725	1	725	1905240	0	0	organic	miss	1905725	1	726	1907360	1909240	1	726	1907360	2	808	1910073	1	727	1909480	foq_16799.png	foq_Pinguin.png	foq_Fenchel.png	665	1778041	ok
69606	06/22/2021 08:59:01	1	13	1914288	1	729	1913720	1916571	1	730	1915840	2	1709	inorganic	correct	1918304	1	731	1917960	1921119	1	732	1920079	2	660	1921803	1	732	1920079	fan_17286.png	fan_Lampe.png	fan_Klavier.png	665	1778041	ok
69606	06/22/2021 08:59:11	1	14	1924768	1	734	1924320	1926701	1	735	1926439	3	1180	organic	correct	1927917	1	735	1926439	1931149	1	737	1930680	4	455	1931633	1	737	1930680	fop_00621.png	fop_Koala.png	fop_Mango.png	665	1778041	ok
69606	06/22/2021 08:59:24	1	15	1934498	1	738	1932800	1937914	1	740	1937039	3	313	organic	correct	1938264	1	740	1937039	1943212	1	742	1941280	4	358	1943595	1	743	1943399	fot_00797.png	fot_Salat.png	fot_Taube.png	665	1778041	ok
69606	06/22/2021 08:59:36	1	16	1947694	1	745	1947640	1949527	1	745	1947640	2	370	inorganic	correct	1949960	1	746	1949759	1954492	1	748	1954000	4	1337	1955858	1	748	1954000	fat_12032.png	fat_Einkaufswagen.png	fat_Kleiderbuegel.png	665	1778041	ok
69606	06/22/2021 08:59:47	1	17	1959323	1	750	1958239	1961389	1	751	1960359	3	1340	organic	correct	1962755	1	752	1962480	1965954	1	753	1964600	4	486	1966471	1	753	1964600	mos_20953.png	mos_Eintagsfliege.png	mos_Traube.png	665	1778041	ok
69606	06/22/2021 08:59:57	1	18	1970869	1	755	1968839	1972536	1	756	1970960	3	2391	organic	correct	1974951	1	757	1973079	1976684	1	758	1975199	3	332	1977051	1	758	1975199	foj_08220.png	foj_Waffel.png	foj_Rose.png	665	1778041	ok
69606	06/22/2021 09:00:10	1	19	1980883	1	760	1979440	1984298	1	762	1983679	0	0	organic	miss	1984298	1	763	1985799	1988080	1	764	1987919	2	380	1988497	1	764	1987919	foa_00207.png	foa_Marienkaefer.png	foa_Aubergine.png	665	1778041	ok
69606	06/22/2021 09:00:20	1	20	1992979	1	766	1992159	1995961	1	767	1994280	2	464	inorganic	correct	1996461	1	768	1996399	2000526	1	769	1998519	4	419	2000993	1	770	2000639	mat_23275.png	mat_Helm.png	mat_Feuerzeug.png	665	1778041	ok
69606	06/22/2021 09:00:32	1	21	2003908	1	771	2002760	2005558	1	772	2004879	3	912	inorganic	incorrect	2006507	1	772	2004879	2010473	1	774	2009119	4	1094	2011589	1	775	2011239	fai_07494.png	fai_Kommode.png	fai_Foehn.png	665	1778041	ok
69606	06/22/2021 09:00:43	1	22	2014971	1	776	2013359	2018004	1	778	2017599	2	398	inorganic	correct	2018437	1	778	2017599	2023168	1	780	2021840	4	347	2023552	1	780	2021840	maw_04767.png	maw_Schlauchboot.png	maw_Pingpongschlaeger.png	665	1778041	ok
69606	06/22/2021 09:00:55	1	23	2026651	1	782	2026079	2029633	1	783	2028200	3	405	organic	correct	2030066	1	783	2028200	2033915	1	785	2032440	4	564	2034515	1	785	2032440	fov_15046.png	fov_Zucchini.png	fov_Fisch.png	665	1778041	ok
69606	06/22/2021 09:01:05	1	24	2038397	1	787	2036679	2040363	1	788	2038799	0	0	organic	miss	2040363	1	790	2043039	2043828	1	790	2043039	3	1307	2045161	1	790	2043039	moh_06446.png	moh_Muecke.png	moh_Birne.png	665	1778041	ok
69606	06/22/2021 09:01:15	1	25	2048427	1	792	2047279	2050226	1	793	2049399	3	2514	organic	correct	2052775	1	794	2051519	2054841	1	795	2053639	3	831	2055708	1	795	2053639	for_15187.png	for_Mandel.png	for_Seehund.png	665	1778041	ok
69606	06/22/2021 09:01:28	1	26	2058640	1	797	2057878	2061989	1	798	2060000	2	1497	inorganic	correct	2063522	1	799	2062120	2067320	1	801	2066358	2	754	2068103	1	801	2066358	mai_06530.png	mai_Auto.png	mai_Gewehr.png	665	1778041	ok
69606	06/22/2021 09:01:39	1	27	2071502	1	803	2070599	2074068	1	804	2072719	2	1240	inorganic	correct	2075334	1	805	2074839	2078167	1	806	2076960	4	1792	2079983	1	807	2079080	fab_06018.png	fab_Staubsauger.png	fab_Kinderwagen.png	665	1778041	ok
69606	06/22/2021 09:01:49	1	28	2082382	1	808	2081199	2084015	1	809	2083319	2	875	inorganic	correct	2084914	1	809	2083319	2088713	1	811	2087559	4	908	2089646	1	811	2087559	mau_49693.png	mau_Wasserventil.png	mau_Leiter.png	665	1778041	ok
69606	06/22/2021 09:02:00	1	29	2092795	1	813	2091799	2094978	1	814	2093920	3	2703	inorganic	incorrect	2097743	1	815	2096039	2100226	1	816	2098159	2	471	2100742	1	817	2100280	mak_00987.png	mak_Socken.png	mak_Rucksack.png	665	1778041	ok
69606	06/22/2021 09:02:13	1	30	2103691	1	818	2102400	2107090	1	820	2106639	2	469	inorganic	correct	2107590	1	820	2106639	2111339	1	822	2110880	4	364	2111739	1	822	2110880	map_41499.png	map_Pfeife.png	map_Globus.png	665	1778041	ok
69606	06/22/2021 09:02:25	1	31	2116454	1	824	2115119	2119769	1	826	2119359	3	1952	inorganic	incorrect	2121752	1	827	2121479	2124868	1	828	2123599	2	481	2125384	1	828	2123599	fax_14883.png	fax_Fahrrad.png	fax_Klebeband.png	665	1778041	ok
69606	06/22/2021 09:02:35	1	32	2128450	1	830	2127839	2131365	1	831	2129959	2	1363	inorganic	correct	2132765	1	832	2132079	2135297	1	833	2134199	4	371	2135697	1	833	2134199	fag_06539.png	fag_Portemonnaie.png	fag_Geschenk.png	665	1778041	ok
69606	06/22/2021 09:02:45	1	33	2138863	1	835	2138439	2140612	1	836	2140559	3	2405	inorganic	incorrect	2143045	1	837	2142679	2144144	1	837	2142679	2	380	2144561	1	837	2142679	mal_04470.png	mal_Kugelschreiber.png	mal_Drucker.png	665	1778041	ok
69606	06/22/2021 09:02:55	1	34	2148593	1	839	2146919	2150859	1	840	2149040	3	2027	inorganic	incorrect	2152908	1	841	2151159	2154191	1	842	2153279	2	1088	2155307	1	842	2153279	fal_07906.png	fal_Buegeleisen.png	fal_Korb.png	665	1778041	ok
69606	06/22/2021 09:03:05	1	35	2158823	1	844	2157519	2160622	1	845	2159639	3	591	organic	correct	2161239	1	845	2159639	2164371	1	847	2163879	4	1218	2165621	1	847	2163879	foe_08236.png	foe_Adler.png	foe_Tannenzapfen.png	665	1778041	ok
69606	06/22/2021 09:03:16	1	36	2168653	1	849	2168119	2170935	1	850	2170239	3	662	organic	correct	2171618	1	850	2170239	2175650	1	852	2174479	4	353	2176034	1	852	2174479	fou_17118.png	fou_Schmetterling.png	fou_Feige.png	665	1778041	ok
69606	06/22/2021 09:03:29	1	37	2179149	1	854	2178719	2182598	1	855	2180838	2	502	inorganic	correct	2183131	1	856	2182959	2186763	1	857	2185079	4	357	2187147	1	857	2185079	faw_14215.png	faw_Hufeisen.png	faw_Kuechenmaschine.png	665	1778041	ok
69606	06/22/2021 09:03:38	1	38	2191995	1	860	2191439	2193644	1	861	2193559	2	1230	inorganic	correct	2194911	1	861	2193559	2197260	1	862	2195679	4	342	2197643	1	862	2195679	fac_02146.png	fac_Haarbuerste.png	fac_Ohrring.png	665	1778041	ok
69606	06/22/2021 09:03:49	1	39	2201225	1	864	2199919	2204141	1	865	2202039	3	699	organic	correct	2204874	1	866	2204158	2209322	1	868	2208399	4	674	2210022	1	868	2208399	mof_02408.png	mof_Spaghetti.png	mof_Hahn.png	665	1778041	ok
69606	06/22/2021 09:04:00	1	40	2212821	1	870	2212638	2215537	1	871	2214759	2	469	inorganic	correct	2216037	1	871	2214759	2220102	1	873	2218999	4	443	2220569	1	873	2218999	mao_11634.png	mao_Stempel.png	mao_Kegel.png	665	1778041	ok
69606	06/22/2021 09:04:12	1	41	2223684	1	875	2223239	2226250	1	876	2225359	2	1697	organic	incorrect	2227983	1	877	2227478	2231382	1	878	2229598	2	352	2231765	1	879	2231719	mon_65798.png	mon_Fuchs.png	mon_Kartoffel.png	665	1778041	ok
69606	06/22/2021 09:04:24	1	42	2234981	1	880	2233839	2238129	1	882	2238079	2	1516	organic	incorrect	2239679	1	882	2238079	2242378	1	884	2242319	3	366	2242778	1	884	2242319	foc_02157.png	foc_Eule.png	foc_Brombeere.png	665	1778041	ok
69606	06/22/2021 09:04:35	1	43	2247476	1	886	2246559	2249526	1	887	2248679	2	1369	inorganic	correct	2250925	1	888	2250798	2253174	1	889	2252918	3	485	2253691	1	889	2252918	fap_16329.png	fap_Knopf.png	fap_Kissen.png	665	1778041	ok
69606	06/22/2021 09:04:45	1	44	2258439	1	891	2257159	2260822	1	892	2259278	2	1821	inorganic	correct	2262671	1	893	2261398	2264187	1	894	2263519	3	1065	2265287	1	894	2263519	far_00736.png	far_Giesskanne.png	far_Heissluftballon.png	665	1778041	ok
69606	06/22/2021 09:04:55	1	45	2268369	1	896	2267758	2271035	1	897	2269878	3	1506	organic	correct	2272568	1	898	2271999	2274367	1	899	2274118	4	1188	2275584	1	899	2274118	mom_59361.png	mom_Ei.png	mom_Loewe.png	665	1778041	ok
69606	06/22/2021 09:05:07	1	46	2278882	1	901	2278358	2280965	1	902	2280479	2	1601	organic	incorrect	2282598	1	902	2280479	2285480	1	904	2284718	2	325	2285830	1	904	2284718	foi_03389.png	foi_Apfelkuchen.png	foi_Pflanze.png	665	1778041	ok
69606	06/22/2021 09:05:17	1	47	2290262	1	906	2288958	2292444	1	907	2291078	3	736	organic	correct	2293211	1	907	2291078	2296510	1	909	2295319	4	276	2296826	1	909	2295319	fok_09378.png	fok_Kaenguruh.png	fok_Palme.png	665	1778041	ok
69606	06/22/2021 09:05:28	1	48	2300142	1	911	2299558	2302458	1	912	2301678	2	687	inorganic	correct	2303174	1	912	2301678	2306223	1	914	2305918	4	837	2307090	1	914	2305918	mac_59169.png	mac_Dartpfeil.png	mac_Medaille.png	665	1778041	ok
69606	06/22/2021 09:05:39	1	49	2311505	1	916	2310158	2314604	1	918	2314398	3	2420	inorganic	incorrect	2317053	1	919	2316518	2318419	1	919	2316518	2	385	2318836	1	920	2318638	maj_01546.png	maj_Computermaus.png	maj_Krawatte.png	665	1778041	ok
69606	06/22/2021 09:05:50	1	50	2322101	1	921	2320758	2324767	1	922	2322878	3	2011	organic	correct	2326800	1	923	2324998	2328666	1	924	2327118	3	402	2329099	1	924	2327118	mou_06524.png	mou_Kraehe.png	mou_Croissant.png	665	1778041	ok
69606	06/22/2021 09:06:00	1	51	2333214	1	926	2331358	2335063	1	927	2333478	3	1688	organic	correct	2336780	1	928	2335598	2339895	1	930	2339838	3	269	2340195	1	930	2339838	mol_11363.png	mol_Schimpanse.png	mol_Pizza.png	665	1778041	ok
69606	06/22/2021 09:06:12	1	52	2343477	1	931	2341958	2346959	1	933	2346198	3	477	organic	correct	2347476	1	933	2346198	2351191	1	935	2350437	4	699	2351924	1	935	2350437	moj_11860.png	moj_Blatt.png	moj_Walnuss.png	665	1778041	ok
69606	06/22/2021 09:06:24	1	53	2355673	1	937	2354678	2357922	1	938	2356798	3	2215	organic	correct	2360172	1	939	2358917	2361705	1	940	2361038	3	919	2362654	1	940	2361038	mog_03277.png	mog_Pilz.png	mog_Fledermaus.png	665	1778041	ok
69606	06/22/2021 09:06:34	1	54	2367019	1	942	2365278	2368919	1	943	2367397	3	1873	organic	correct	2370818	1	944	2369518	2374217	1	946	2373757	4	335	2374584	1	946	2373757	moe_23630.png	moe_Pommes.png	moe_Waschbaer.png	665	1778041	ok
69606	06/22/2021 09:06:48	1	55	2377616	1	947	2375877	2381031	1	949	2380118	2	343	inorganic	correct	2381398	1	949	2380118	2385746	1	951	2384358	4	292	2386063	1	951	2384358	mae_36426.png	mae_Taschenrechner.png	mae_Schach.png	665	1778041	ok
69606	06/22/2021 09:06:59	1	56	2390995	1	954	2390717	2393960	1	955	2392838	3	1776	organic	correct	2395776	1	956	2394958	2398942	1	957	2397077	2	490	2399458	1	958	2399197	mob_22833.png	mob_Kiwi.png	mob_Igel.png	665	1778041	ok
69606	06/22/2021 09:07:11	1	57	2402357	1	959	2401318	2405406	1	960	2403438	2	1137	inorganic	correct	2406573	1	961	2405557	2409972	1	963	2409798	2	378	2410371	1	963	2409798	mas_41937.png	mas_Tisch.png	mas_Bueroklammer.png	665	1778041	ok
69606	06/22/2021 09:07:22	1	58	2414687	1	965	2414037	2417802	1	966	2416157	2	1308	inorganic	correct	2419135	1	967	2418278	2421768	1	968	2420397	3	497	2422301	1	968	2420397	faj_07849.png	faj_Parfuem.png	faj_Schuh.png	665	1778041	ok
69606	06/22/2021 09:07:33	1	59	2425616	1	970	2424637	2429165	1	972	2428877	3	1368	organic	correct	2430565	1	972	2428877	2432964	1	973	2430997	2	1013	2434014	1	974	2433118	mot_69770.png	mot_Hotdog.png	mot_Bison.png	665	1778041	ok
69606	06/22/2021 09:07:45	1	60	2436529	1	975	2435237	2438345	1	976	2437357	3	2281	organic	correct	2440661	1	977	2439477	2443527	1	978	2441598	4	542	2444110	1	979	2443717	foq_17341.png	foq_Fenchel.png	foq_Pinguin.png	665	1778041	ok
69606	06/22/2021 09:07:56	1	61	2448059	1	981	2447957	2451241	1	982	2450078	3	1527	organic	correct	2452791	1	983	2452197	2455856	1	984	2454317	2	408	2456289	1	984	2454317	fop_07937.png	fop_Mango.png	fop_Koala.png	665	1778041	ok
69606	06/22/2021 09:08:07	1	62	2459705	1	986	2458557	2462271	1	987	2460677	2	1710	organic	incorrect	2464003	1	988	2462797	2467169	1	990	2467037	2	624	2467819	1	990	2467037	fot_06092.png	fot_Taube.png	fot_Salat.png	665	1778041	ok
69606	06/22/2021 09:08:19	1	63	2470901	1	991	2469157	2474233	1	993	2473397	2	329	inorganic	correct	2474600	1	993	2473397	2477849	1	995	2477637	3	293	2478165	1	995	2477637	fat_14140.png	fat_Kleiderbuegel.png	fat_Einkaufswagen.png	665	1778041	ok
69606	06/22/2021 09:08:29	1	64	2482381	1	997	2481877	2484180	1	998	2483997	2	2063	inorganic	correct	2486279	1	999	2486117	2488562	1	1000	2488237	3	1217	2489811	1	1000	2488237	fan_18894.png	fan_Klavier.png	fan_Lampe.png	665	1778041	ok
69606	06/22/2021 09:08:39	1	65	2492794	1	1002	2492477	2494643	1	1002	2492477	3	1624	organic	correct	2496309	1	1003	2494597	2498075	1	1004	2496716	2	333	2498442	1	1004	2496716	mos_23223.png	mos_Traube.png	mos_Eintagsfliege.png	665	1778041	ok
69606	06/22/2021 09:08:50	1	66	2502424	1	1006	2500957	2505040	1	1007	2503077	2	515	inorganic	correct	2505589	1	1008	2505196	2509721	1	1010	2509437	2	366	2510121	1	1010	2509437	mat_23754.png	mat_Feuerzeug.png	mat_Helm.png	665	1778041	ok
69606	06/22/2021 09:09:00	1	67	2513287	1	1011	2511557	2515436	1	1012	2513676	3	600	organic	correct	2516069	1	1013	2515797	2519801	1	1014	2517917	4	591	2520418	1	1015	2520036	foj_08937.png	foj_Rose.png	foj_Waffel.png	665	1778041	ok
69606	06/22/2021 09:09:12	1	68	2523883	1	1016	2522156	2526282	1	1017	2524277	2	2226	organic	incorrect	2528532	1	1018	2526397	2530181	1	1019	2528516	2	408	2530614	1	1019	2528516	foa_00426.png	foa_Aubergine.png	foa_Marienkaefer.png	665	1778041	ok
69606	06/22/2021 09:09:22	1	69	2535013	1	1022	2534877	2537429	1	1023	2536996	3	360	organic	correct	2537812	1	1023	2536996	2541194	1	1024	2539117	4	298	2541561	1	1025	2541237	moh_07125.png	moh_Birne.png	moh_Muecke.png	665	1778041	ok
69606	06/22/2021 09:09:33	1	70	2545409	1	1026	2543356	2547175	1	1027	2545476	3	1467	inorganic	incorrect	2548675	1	1028	2547597	2552024	1	1030	2551836	2	394	2552440	1	1030	2551836	maw_22459.png	maw_Pingpongschlaeger.png	maw_Schlauchboot.png	665	1778041	ok
69606	06/22/2021 09:09:46	1	71	2556139	1	1032	2556077	2558871	1	1033	2558197	2	350	inorganic	correct	2559255	1	1033	2558197	2563936	1	1035	2562436	4	406	2564370	1	1035	2562436	fai_07637.png	fai_Foehn.png	fai_Kommode.png	665	1778041	ok
69606	06/22/2021 09:09:58	1	72	2569218	1	1038	2568796	2571401	1	1039	2570916	3	1364	organic	correct	2572800	1	1039	2570916	2576399	1	1041	2575156	3	334	2576765	1	1041	2575156	fov_15193.png	fov_Fisch.png	fov_Zucchini.png	665	1778041	ok
69606	06/22/2021 09:10:07	1	73	2581031	1	1043	2579397	2582780	1	1044	2581516	2	1071	inorganic	correct	2583880	1	1045	2583636	2586512	1	1046	2585756	4	427	2586962	1	1046	2585756	mau_58144.png	mau_Leiter.png	mau_Wasserventil.png	665	1778041	ok
69606	06/22/2021 09:10:20	1	74	2590361	1	1048	2589996	2593377	1	1049	2592116	2	1231	inorganic	correct	2594659	1	1050	2594236	2598358	1	1051	2596357	4	778	2599158	1	1052	2598476	fab_06286.png	fab_Kinderwagen.png	fab_Staubsauger.png	665	1778041	ok
69606	06/22/2021 09:10:30	1	75	2603123	1	1054	2602716	2605306	1	1055	2604836	2	286	inorganic	correct	2605622	1	1055	2604836	2609904	1	1057	2609076	4	263	2610204	1	1057	2609076	mai_23761.png	mai_Gewehr.png	mai_Auto.png	665	1778041	ok
69606	06/22/2021 09:10:42	1	76	2613603	1	1059	2613316	2617069	1	1060	2615436	3	723	organic	correct	2617818	1	1061	2617556	2621667	1	1062	2619676	4	315	2622017	1	1063	2621796	for_15880.png	for_Seehund.png	for_Mandel.png	665	1778041	ok
69606	06/22/2021 09:10:54	1	77	2625166	1	1064	2623916	2628248	1	1066	2628156	3	2446	inorganic	incorrect	2630731	1	1067	2630276	2632780	1	1068	2632396	3	2643	2635446	1	1069	2634516	fag_06551.png	fag_Geschenk.png	fag_Portemonnaie.png	665	1778041	ok
69606	06/22/2021 09:11:07	1	78	2637795	1	1070	2636636	2640211	1	1071	2638756	2	623	inorganic	correct	2640877	1	1071	2638756	2645076	1	1073	2642996	4	1311	2646409	1	1074	2645116	mak_03979.png	mak_Rucksack.png	mak_Socken.png	665	1778041	ok
69606	06/22/2021 09:11:20	1	79	2650291	1	1076	2649356	2653390	1	1077	2651475	2	1495	inorganic	correct	2654906	1	1078	2653596	2658621	1	1080	2657836	3	1305	2659954	1	1080	2657836	map_49576.png	map_Globus.png	map_Pfeife.png	665	1778041	ok
69606	06/22/2021 09:11:31	1	80	2663836	1	1082	2662076	2666619	1	1084	2666315	0	0	inorganic	miss	2666619	1	1085	2668435	2670151	1	1085	2668435	4	855	2671034	1	1086	2670556	fax_15310.png	fax_Klebeband.png	fax_Fahrrad.png	665	1778041	ok
69606	06/22/2021 09:11:43	1	81	2674083	1	1087	2672676	2677315	1	1089	2676916	3	682	organic	correct	2678031	1	1089	2676916	2682463	1	1091	2681156	4	307	2682796	1	1091	2681156	foe_08514.png	foe_Tannenzapfen.png	foe_Adler.png	665	1778041	ok
69606	06/22/2021 09:11:53	1	82	2686945	1	1093	2685396	2688944	1	1094	2687516	2	2204	inorganic	correct	2691194	1	1095	2689635	2692710	1	1096	2691755	3	323	2693076	1	1096	2691755	mal_20552.png	mal_Drucker.png	mal_Kugelschreiber.png	665	1778041	ok
69606	06/22/2021 09:12:05	1	83	2696875	1	1098	2695996	2700307	1	1100	2700235	3	213	organic	correct	2700557	1	1100	2700235	2704789	1	1102	2704475	4	303	2705122	1	1102	2704475	fou_18966.png	fou_Feige.png	fou_Schmetterling.png	665	1778041	ok
69606	06/22/2021 09:12:17	1	84	2708921	1	1104	2708715	2711920	1	1105	2710836	2	352	inorganic	correct	2712303	1	1105	2710836	2715852	1	1107	2715075	3	263	2716152	1	1107	2715075	fal_07977.png	fal_Korb.png	fal_Buegeleisen.png	665	1778041	ok
69606	06/22/2021 09:12:31	1	85	2720484	1	1109	2719316	2724016	1	1111	2723555	3	397	organic	correct	2724449	1	1111	2723555	2729264	1	1113	2727796	4	676	2729964	1	1114	2729915	mof_06901.png	mof_Hahn.png	mof_Spaghetti.png	665	1778041	ok
69606	06/22/2021 09:12:41	1	86	2734063	1	1115	2732035	2735795	1	1116	2734156	2	1401	inorganic	correct	2737228	1	1117	2736276	2740694	1	1119	2740515	2	645	2741393	1	1119	2740515	faw_14685.png	faw_Kuechenmaschine.png	faw_Hufeisen.png	665	1778041	ok
69606	06/22/2021 09:12:50	1	87	2744342	1	1120	2742636	2746058	1	1121	2744755	2	345	inorganic	correct	2746442	1	1121	2744755	2749557	1	1123	2748995	4	994	2750574	1	1123	2748995	fac_02970.png	fac_Ohrring.png	fac_Haarbuerste.png	665	1778041	ok
69606	06/22/2021 09:13:02	1	88	2753773	1	1125	2753235	2756655	1	1126	2755356	3	287	inorganic	incorrect	2756971	1	1126	2755356	2761453	1	1128	2759595	2	276	2761753	1	1129	2761715	mao_19000.png	mao_Kegel.png	mao_Stempel.png	665	1778041	ok
69606	06/22/2021 09:13:14	1	89	2765918	1	1130	2763836	2768967	1	1132	2768075	2	316	inorganic	correct	2769317	1	1132	2768075	2774066	1	1134	2772316	4	249	2774349	1	1134	2772316	far_06518.png	far_Heissluftballon.png	far_Giesskanne.png	665	1778041	ok
69606	06/22/2021 09:13:26	1	90	2777648	1	1136	2776556	2780797	1	1137	2778676	2	267	organic	incorrect	2781097	1	1138	2780796	2785795	1	1140	2785036	2	251	2786078	1	1140	2785036	mon_69587.png	mon_Kartoffel.png	mon_Fuchs.png	665	1778041	ok
69606	06/22/2021 09:13:38	1	91	2789744	1	1142	2789275	2791960	1	1143	2791396	0	0	inorganic	miss	2791960	1	1144	2793516	2797108	1	1145	2795636	4	580	2797724	1	1145	2795636	fap_17119.png	fap_Kissen.png	fap_Knopf.png	665	1778041	ok
69606	06/22/2021 09:13:47	1	92	2801756	1	1147	2799876	2803889	1	1148	2801996	3	336	organic	correct	2804256	1	1149	2804116	2807454	1	1150	2806235	4	845	2808338	1	1150	2806235	foc_02664.png	foc_Brombeere.png	foc_Eule.png	665	1778041	ok
69606	06/22/2021 09:13:57	1	93	2810853	1	1152	2810476	2813003	1	1153	2812595	2	884	inorganic	correct	2813919	1	1153	2812595	2816901	1	1155	2816836	2	767	2817701	1	1155	2816836	mac_59752.png	mac_Medaille.png	mac_Dartpfeil.png	665	1778041	ok
69606	06/22/2021 09:14:08	1	94	2820317	1	1156	2818956	2822016	1	1157	2821075	3	1475	organic	correct	2823516	1	1158	2823196	2827314	1	1159	2825316	3	252	2827598	1	1160	2827436	foi_05187.png	foi_Pflanze.png	foi_Apfelkuchen.png	665	1778041	ok
69606	06/22/2021 09:14:22	1	95	2831880	1	1162	2831676	2835029	1	1163	2833796	3	1962	organic	correct	2837011	1	1164	2835915	2839710	1	1165	2838035	3	366	2840127	1	1165	2838035	fok_09860.png	fok_Palme.png	fok_Kaenguruh.png	665	1778041	ok
69606	06/22/2021 09:14:35	1	96	2845042	1	1168	2844395	2848257	1	1169	2846515	2	772	organic	incorrect	2849057	1	1170	2848636	2853439	1	1172	2852875	2	1604	2855072	1	1173	2854995	mom_59641.png	mom_Loewe.png	mom_Ei.png	665	1778041	ok
