ID	DateTime	Run	Encoding_Trial	FaceBase_OnsetTime	FaceBase_OnsetTimeUncertainty	FaceBase_fMRI_Pulse	FaceBase_fMRI_PulseTime	Assoc_Encoding_OnsetTime	Assoc_Encoding_OnsetTimeUncertainty	Assoc_Encoding_fMRI_Pulse	Assoc_Encoding_fMRI_PulseTime	Immediate_Recall_OnsetTime	Immediate_Recall_OnsetTimeUncertainty	Immediate_Recall_fMRI_Pulse	Immediate_Recall_fMRI_PulseTime	Immediate_Recall_Pressed_Button	Immediate_Recall_RT	Immediate_Recall_Accuracy	Immediate_Recall_Feedback_OnsetTime	Immediate_Recall_Feedback_OnsetTimeUncertainty	Immediate_Recall_Feedback_fMRI_Pulse	Immediate_Recall_Feedback_fMRI_PulseTime	Presented_Person	Presented_Object	Object_Category	First_pulse_time	TrialStatus
69632	09/07/2021 15:51:50	1	1	76907	1	6	76628	80372	1	7	78750	84654	1	9	82990	2	499	correct	85187	1	10	85110	fal_07906.png	fal_Korb.png	inorganic	66030	ok
69632	09/07/2021 15:52:01	1	2	89119	1	11	87229	92268	1	13	91470	96267	1	15	95709	2	540	correct	96833	1	15	95709	fap_16329.png	fap_Kissen.png	inorganic	66030	ok
69632	09/07/2021 15:52:11	1	3	100499	1	17	99950	102098	1	17	99950	105730	1	19	104190	3	456	correct	106214	1	19	104190	mou_01862.png	mou_Croissant.png	organic	66030	ok
69632	09/07/2021 15:52:24	1	4	110196	1	21	108430	113744	1	23	112670	118593	1	25	116909	2	412	correct	119026	1	25	116909	mae_01010.png	mae_Schach.png	inorganic	66030	ok
69632	09/07/2021 15:52:36	1	5	122991	1	27	121150	125957	1	29	125389	130239	1	31	129630	2	516	correct	130789	1	31	129630	fax_14883.png	fax_Klebeband.png	inorganic	66030	ok
69632	09/07/2021 15:52:47	1	6	135470	1	33	133869	137536	1	34	135989	141702	1	36	140229	3	553	correct	142285	1	36	140229	moj_11821.png	moj_Blatt.png	organic	66030	ok
69632	09/07/2021 15:52:57	1	7	146083	1	38	144470	147983	1	39	146590	152431	1	41	150829	3	573	correct	153048	1	42	152950	mos_20953.png	mos_Eintagsfliege.png	organic	66030	ok
69632	09/07/2021 15:53:07	1	8	156397	1	43	155069	159046	1	44	157189	162394	1	46	161430	3	470	correct	162894	1	46	161430	fov_15046.png	fov_Zucchini.png	organic	66030	ok
69632	09/07/2021 15:53:16	1	9	166510	1	48	165669	168093	1	49	167789	171625	1	50	169910	2	589	correct	172241	1	51	172029	fat_12032.png	fat_Einkaufswagen.png	inorganic	66030	ok
69632	09/07/2021 15:53:27	1	10	175940	1	52	174149	178289	1	53	176270	182454	1	55	180509	2	584	correct	183071	1	56	182629	far_00736.png	far_Giesskanne.png	inorganic	66030	ok
69632	09/07/2021 15:53:38	1	11	186270	1	57	184750	188686	1	58	186869	193617	1	61	193229	3	216	correct	193867	1	61	193229	fot_00797.png	fot_Taube.png	organic	66030	ok
69632	09/07/2021 15:53:50	1	12	197366	1	62	195349	200315	1	64	199589	204230	1	66	203829	3	541	correct	204797	1	66	203829	moh_06446.png	moh_Muecke.png	organic	66030	ok
69632	09/07/2021 15:54:01	1	13	209445	1	68	208069	212827	1	70	212309	217009	1	72	216549	2	361	correct	217393	1	72	216549	mas_41366.png	mas_Bueroklammer.png	inorganic	66030	ok
69632	09/07/2021 15:54:12	1	14	220691	1	73	218669	223374	1	75	222909	227706	1	77	227149	2	937	correct	228672	1	77	227149	fag_06539.png	fag_Portemonnaie.png	inorganic	66030	ok
69632	09/07/2021 15:54:24	1	15	231671	1	79	231388	235070	1	80	233509	239302	1	82	237749	3	697	correct	240035	1	83	239868	mof_02408.png	mof_Hahn.png	organic	66030	ok
69632	09/07/2021 15:54:36	1	16	243900	1	84	241989	246833	1	86	246229	250281	1	87	248348	2	618	correct	250948	1	88	250469	mao_11634.png	mao_Kegel.png	inorganic	66030	ok
69632	09/07/2021 15:54:48	1	17	255430	1	90	254708	258679	1	91	256829	262494	1	93	261069	3	382	correct	262910	1	93	261069	mot_69374.png	mot_Bison.png	organic	66030	ok
69632	09/07/2021 15:54:58	1	18	267509	1	96	267429	269775	1	97	269549	273057	1	98	271668	2	747	correct	273840	1	99	273789	mal_04470.png	mal_Drucker.png	inorganic	66030	ok
69632	09/07/2021 15:55:11	1	19	277472	1	100	275909	280888	1	102	280148	285286	1	104	284389	3	431	correct	285753	1	104	284389	fok_09378.png	fok_Palme.png	organic	66030	ok
69632	09/07/2021 15:55:20	1	20	289951	1	106	288628	292534	1	107	290749	296099	1	109	294988	3	356	correct	296482	1	109	294988	foc_02157.png	foc_Eule.png	organic	66030	ok
69632	09/07/2021 15:55:32	1	21	299631	1	111	299229	303047	1	112	301348	307345	1	114	305589	3	426	correct	307795	1	115	307709	mom_59361.png	mom_Ei.png	organic	66030	ok
69632	09/07/2021 15:55:43	1	22	311394	1	116	309828	314526	1	118	314069	317875	1	119	316188	3	500	correct	318408	1	120	318308	fop_00621.png	fop_Mango.png	organic	66030	ok
69632	09/07/2021 15:55:54	1	23	322607	1	122	322549	324873	1	123	324668	328772	1	124	326788	3	389	correct	329188	1	125	328908	mob_00760.png	mob_Kiwi.png	organic	66030	ok
69632	09/07/2021 15:56:05	1	24	333687	1	127	333148	336569	1	128	335268	340468	1	130	339508	2	439	correct	340934	1	130	339508	fac_02146.png	fac_Haarbuerste.png	inorganic	66030	ok
69632	09/07/2021 15:56:14	1	25	344566	1	132	343748	347249	1	133	345869	350597	1	135	350108	2	378	correct	351014	1	135	350108	fai_07494.png	fai_Foehn.png	inorganic	66030	ok
69632	09/07/2021 15:56:26	1	26	353946	1	136	352228	356529	1	138	356468	360061	1	139	358588	3	1257	correct	361344	1	140	360708	fou_17118.png	fou_Feige.png	organic	66030	ok
69632	09/07/2021 15:56:39	1	27	365292	1	142	364948	368825	1	143	367068	372740	1	145	371308	2	251	correct	373023	1	145	371308	map_41499.png	map_Globus.png	inorganic	66030	ok
69632	09/07/2021 15:56:50	1	28	377955	1	148	377668	380521	1	149	379788	384886	1	151	384028	3	759	correct	385669	1	151	384028	foe_08236.png	foe_Tannenzapfen.png	organic	66030	ok
69632	09/07/2021 15:57:02	1	29	389484	1	153	388268	392617	1	155	392507	396615	1	156	394628	3	270	correct	396932	1	157	396748	foi_03389.png	foi_Apfelkuchen.png	organic	66030	ok
69632	09/07/2021 15:57:13	1	30	401447	1	159	400987	404196	1	160	403108	408228	1	162	407347	2	237	correct	408495	1	162	407347	mai_06530.png	mai_Gewehr.png	inorganic	66030	ok
69632	09/07/2021 15:57:24	1	31	412560	1	164	411588	415675	1	165	413708	419891	1	167	417948	3	545	correct	420474	1	168	420068	mon_65798.png	mon_Fuchs.png	organic	66030	ok
69632	09/07/2021 15:57:36	1	32	423923	1	169	422188	427355	1	171	426428	430554	1	172	428548	2	422	correct	431004	1	173	430667	mac_59169.png	mac_Medaille.png	inorganic	66030	ok
69632	09/07/2021 15:57:46	1	33	435519	1	175	434908	438434	1	176	437028	441817	1	178	441267	3	1302	correct	443149	1	178	441267	mog_03090.png	mog_Fledermaus.png	organic	66030	ok
69632	09/07/2021 15:57:57	1	34	445649	1	180	445507	448781	1	181	447627	452663	1	183	451868	2	895	correct	453596	1	183	451868	faw_14215.png	faw_Hufeisen.png	inorganic	66030	ok
69632	09/07/2021 15:58:09	1	35	456628	1	185	456107	458961	1	186	458227	463409	1	188	462467	2	310	correct	463742	1	188	462467	mat_23275.png	mat_Feuerzeug.png	inorganic	66030	ok
69632	09/07/2021 15:58:18	1	36	468391	1	190	466708	470424	1	191	468827	474372	1	193	473067	2	363	correct	474772	1	193	473067	mau_49693.png	mau_Leiter.png	inorganic	66030	ok
69632	09/07/2021 15:58:30	1	37	477721	1	195	477307	480620	1	196	479427	484169	1	198	483667	3	316	correct	484519	1	198	483667	foa_00207.png	foa_Marienkaefer.png	organic	66030	ok
69632	09/07/2021 15:58:40	1	38	489184	1	200	487907	490800	1	201	490027	494265	1	202	492147	3	628	correct	494932	1	203	494267	foq_16799.png	foq_Pinguin.png	organic	66030	ok
69632	09/07/2021 15:58:50	1	39	499197	1	205	498507	502046	1	206	500627	505262	1	208	504867	3	556	correct	505845	1	208	504867	mol_07679.png	mol_Schimpanse.png	organic	66030	ok
69632	09/07/2021 15:59:00	1	40	509177	1	210	509107	511876	1	211	511227	516208	1	213	515467	2	295	correct	516525	1	213	515467	mak_00987.png	mak_Socken.png	inorganic	66030	ok
69632	09/07/2021 15:59:11	1	41	519790	1	215	519707	522056	1	216	521826	525355	1	217	523947	2	341	correct	525721	1	217	523947	fab_06018.png	fab_Staubsauger.png	inorganic	66030	ok
69632	09/07/2021 15:59:22	1	42	530520	1	220	530306	533969	1	221	532427	537801	1	223	536666	2	324	correct	538151	1	223	536666	maw_04767.png	maw_Schlauchboot.png	inorganic	66030	ok
69632	09/07/2021 15:59:34	1	43	541683	1	225	540907	543532	1	226	543027	548530	1	228	547267	3	484	correct	549047	1	228	547267	moe_02012.png	moe_Waschbaer.png	organic	66030	ok
69632	09/07/2021 15:59:46	1	44	553412	1	230	551507	555778	1	231	553626	560310	1	234	559986	2	270	correct	560610	1	234	559986	maj_01545.png	maj_Krawatte.png	inorganic	66030	ok
69632	09/07/2021 15:59:57	1	45	565291	1	236	564227	567557	1	237	566347	572572	1	239	570586	3	793	correct	573389	1	240	572707	for_15187.png	for_Seehund.png	organic	66030	ok
69632	09/07/2021 16:00:08	1	46	576138	1	241	574827	578570	1	242	576946	583469	1	245	583306	3	912	correct	584418	1	245	583306	foj_08220.png	foj_Waffel.png	organic	66030	ok
69632	09/07/2021 16:00:20	1	47	586951	1	246	585426	590516	1	248	589667	594631	1	250	593906	2	479	correct	595148	1	250	593906	fan_17286.png	fan_Lampe.png	inorganic	66030	ok
69632	09/07/2021 16:00:32	1	48	599630	1	252	598146	602495	1	254	602386	607527	1	256	606626	2	523	correct	608077	1	256	606626	faj_07783.png	faj_Parfuem.png	inorganic	66030	ok
69632	09/07/2021 16:00:43	1	49	611876	1	258	610866	613742	1	259	612987	617974	1	261	617226	2	357	correct	618357	1	261	617226	fal_07977.png	fal_Buegeleisen.png	inorganic	66030	ok
69632	09/07/2021 16:00:55	1	50	622789	1	263	621466	625621	1	264	623586	630219	1	267	629946	2	248	correct	630503	1	267	629946	fap_17119.png	fap_Knopf.png	inorganic	66030	ok
69632	09/07/2021 16:01:08	1	51	634218	1	269	634186	637367	1	270	636306	642249	1	272	640546	3	315	correct	642599	1	272	640546	mou_06524.png	mou_Kraehe.png	organic	66030	ok
69632	09/07/2021 16:01:19	1	52	647447	1	275	646906	649563	1	276	649026	653878	1	278	653265	2	278	correct	654178	1	278	653265	mae_36426.png	mae_Taschenrechner.png	inorganic	66030	ok
69632	09/07/2021 16:01:33	1	53	658160	1	280	657505	661642	1	281	659625	666640	1	284	665986	2	1567	correct	668240	1	285	668106	fax_15310.png	fax_Fahrrad.png	inorganic	66030	ok
69632	09/07/2021 16:01:43	1	54	671955	1	286	670226	673721	1	287	672345	677903	1	289	676585	3	858	correct	678786	1	290	678705	moj_11860.png	moj_Walnuss.png	organic	66030	ok
69632	09/07/2021 16:01:54	1	55	682668	1	291	680825	684651	1	292	682944	689483	1	295	689305	3	260	correct	689766	1	295	689305	mos_23223.png	mos_Traube.png	organic	66030	ok
69632	09/07/2021 16:02:04	1	56	693181	1	296	691425	695481	1	297	693546	698630	1	299	697785	3	507	correct	699163	1	299	697785	fov_15193.png	fov_Fisch.png	organic	66030	ok
69632	09/07/2021 16:02:14	1	57	703078	1	301	702025	704861	1	302	704145	709776	1	304	708385	2	315	correct	710126	1	304	708385	fat_14140.png	fat_Kleiderbuegel.png	inorganic	66030	ok
69632	09/07/2021 16:02:24	1	58	713258	1	306	712625	715357	1	307	714744	718856	1	308	716866	2	313	correct	719206	1	309	718986	far_06518.png	far_Heissluftballon.png	inorganic	66030	ok
69632	09/07/2021 16:02:37	1	59	723288	1	311	723224	726437	1	312	725345	731485	1	314	729584	3	279	correct	731785	1	315	731704	fot_06092.png	fot_Salat.png	organic	66030	ok
69632	09/07/2021 16:02:49	1	60	736284	1	317	735944	739849	1	318	738064	744947	1	321	744424	3	621	correct	745614	1	321	744424	moh_07125.png	moh_Birne.png	organic	66030	ok
69632	09/07/2021 16:03:01	1	61	748479	1	322	746544	751428	1	324	750784	756210	1	326	755024	2	582	correct	756827	1	326	755024	mas_41937.png	mas_Tisch.png	inorganic	66030	ok
69632	09/07/2021 16:03:13	1	62	760575	1	328	759264	763874	1	330	763504	768773	1	332	767744	2	338	correct	769139	1	332	767744	fag_06551.png	fag_Geschenk.png	inorganic	66030	ok
69632	09/07/2021 16:03:24	1	63	772921	1	334	771984	775487	1	335	774104	779136	1	337	778344	3	358	correct	779519	1	337	778344	mof_06901.png	mof_Spaghetti.png	organic	66030	ok
69632	09/07/2021 16:03:35	1	64	783601	1	339	782584	786300	1	340	784704	790898	1	342	788944	2	1419	correct	792365	1	343	791064	mao_19000.png	mao_Stempel.png	inorganic	66030	ok
69632	09/07/2021 16:03:45	1	65	794497	1	344	793184	796247	1	345	795304	799795	1	347	799544	3	1039	correct	800862	1	347	799544	mot_69770.png	mot_Hotdog.png	organic	66030	ok
69632	09/07/2021 16:03:57	1	66	804710	1	349	803784	808009	1	350	805904	811641	1	352	810145	2	330	correct	812008	1	352	810145	mal_20552.png	mal_Kugelschreiber.png	inorganic	66030	ok
69632	09/07/2021 16:04:09	1	67	816490	1	354	814384	819139	1	356	818624	823754	1	358	822864	3	372	correct	824154	1	358	822864	fok_09860.png	fok_Kaenguruh.png	organic	66030	ok
69632	09/07/2021 16:04:20	1	68	828136	1	360	827105	831285	1	361	829224	835183	1	363	833464	3	1236	correct	836450	1	364	835583	foc_02664.png	foc_Brombeere.png	organic	66030	ok
69632	09/07/2021 16:04:30	1	69	839632	1	365	837704	841814	1	366	839824	845547	1	368	844063	3	540	correct	846113	1	368	844063	mom_59641.png	mom_Loewe.png	organic	66030	ok
69632	09/07/2021 16:04:40	1	70	848979	1	370	848304	852028	1	371	850423	855876	1	373	854665	3	833	correct	856743	1	373	854665	fop_07937.png	fop_Koala.png	organic	66030	ok
69632	09/07/2021 16:04:50	1	71	859242	1	375	858903	861275	1	376	861024	866006	1	378	865263	3	906	correct	866939	1	378	865263	mob_22833.png	mob_Igel.png	organic	66030	ok
69632	09/07/2021 16:05:01	1	72	869788	1	380	869504	871471	1	380	869504	875586	1	382	873743	2	879	correct	876486	1	383	875863	fac_02970.png	fac_Ohrring.png	inorganic	66030	ok
69632	09/07/2021 16:05:11	1	73	880318	1	385	880104	882118	1	385	880104	886583	1	388	886464	2	359	correct	886966	1	388	886464	fai_07637.png	fai_Kommode.png	inorganic	66030	ok
69632	09/07/2021 16:05:21	1	74	890381	1	389	888583	892781	1	390	890703	896063	1	392	894944	3	1096	correct	897196	1	393	897063	fou_18966.png	fou_Schmetterling.png	organic	66030	ok
69632	09/07/2021 16:05:34	1	75	900678	1	394	899183	903694	1	396	903423	908042	1	398	907663	2	370	correct	908442	1	398	907663	map_49576.png	map_Pfeife.png	inorganic	66030	ok
69632	09/07/2021 16:05:44	1	76	913207	1	400	911903	915156	1	401	914023	919288	1	403	918264	3	384	correct	919705	1	403	918264	foe_08514.png	foe_Adler.png	organic	66030	ok
69632	09/07/2021 16:05:55	1	77	922970	1	405	922503	926186	1	406	924623	930884	1	408	928863	3	1236	correct	932151	1	409	930983	foi_05187.png	foi_Pflanze.png	organic	66030	ok
69632	09/07/2021 16:06:07	1	78	934633	1	410	933103	937715	1	412	937344	941364	1	413	939463	2	290	correct	941697	1	414	941583	mai_23761.png	mai_Auto.png	inorganic	66030	ok
69632	09/07/2021 16:06:19	1	79	946579	1	416	945823	949478	1	417	947943	953860	1	419	952183	3	1057	correct	954943	1	420	954303	mon_69587.png	mon_Kartoffel.png	organic	66030	ok
69632	09/07/2021 16:06:30	1	80	958292	1	421	956423	960658	1	422	958543	964939	1	425	964902	2	220	correct	965189	1	425	964902	mac_59752.png	mac_Dartpfeil.png	inorganic	66030	ok
69632	09/07/2021 16:06:41	1	81	969621	1	427	969143	971770	1	428	971263	975236	1	429	973382	3	629	correct	975902	1	430	975503	mog_03277.png	mog_Pilz.png	organic	66030	ok
69632	09/07/2021 16:06:53	1	82	980368	1	432	979743	983900	1	433	981863	988115	1	435	986103	2	700	correct	988865	1	436	988222	faw_14685.png	faw_Kuechenmaschine.png	inorganic	66030	ok
69632	09/07/2021 16:07:05	1	83	992597	1	438	992463	996062	1	439	994583	1000811	1	441	998823	2	383	correct	1001227	1	442	1000943	mat_23754.png	mat_Helm.png	inorganic	66030	ok
69632	09/07/2021 16:07:15	1	84	1004576	1	443	1003062	1006242	1	444	1005182	1010357	1	446	1009423	2	1231	correct	1011624	1	447	1011542	mau_58144.png	mau_Wasserventil.png	inorganic	66030	ok
69632	09/07/2021 16:07:25	1	85	1014123	1	448	1013662	1017122	1	449	1015783	1020504	1	451	1020022	3	829	correct	1021370	1	451	1020022	foa_00426.png	foa_Aubergine.png	organic	66030	ok
69632	09/07/2021 16:07:35	1	86	1024336	1	453	1024263	1025919	1	453	1024263	1030017	1	455	1028502	3	436	correct	1030484	1	455	1028502	foq_17341.png	foq_Fenchel.png	organic	66030	ok
69632	09/07/2021 16:07:46	1	87	1034666	1	457	1032743	1038065	1	459	1036982	1041264	1	461	1041222	3	1293	correct	1042580	1	461	1041222	mol_11363.png	mol_Pizza.png	organic	66030	ok
69632	09/07/2021 16:07:58	1	88	1045862	1	463	1045462	1048911	1	464	1047583	1052626	1	466	1051822	2	1152	correct	1053809	1	466	1051822	mak_03979.png	mak_Rucksack.png	inorganic	66030	ok
69632	09/07/2021 16:08:07	1	89	1057525	1	468	1056062	1059591	1	469	1058182	1063223	1	471	1062423	2	789	correct	1064039	1	471	1062423	fab_06286.png	fab_Kinderwagen.png	inorganic	66030	ok
69632	09/07/2021 16:08:20	1	90	1066855	1	473	1066662	1069504	1	474	1068782	1073769	1	476	1073022	2	1341	correct	1075135	1	476	1073022	maw_22459.png	maw_Pingpongschlaeger.png	inorganic	66030	ok
69632	09/07/2021 16:08:31	1	91	1079001	1	478	1077262	1082133	1	480	1081502	1086348	1	482	1085742	3	272	correct	1086665	1	482	1085742	moe_23630.png	moe_Pommes.png	organic	66030	ok
69632	09/07/2021 16:08:41	1	92	1090097	1	484	1089982	1093346	1	485	1092102	1096612	1	487	1096342	2	1005	correct	1097645	1	487	1096342	maj_01546.png	maj_Computermaus.png	inorganic	66030	ok
69632	09/07/2021 16:08:53	1	93	1100644	1	489	1100582	1102809	1	490	1102702	1107291	1	492	1106942	3	529	correct	1107858	1	492	1106942	for_15880.png	for_Mandel.png	organic	66030	ok
69632	09/07/2021 16:09:04	1	94	1112340	1	494	1111182	1114456	1	495	1113302	1118554	1	497	1117541	3	1523	correct	1120104	1	498	1119662	foj_08937.png	foj_Rose.png	organic	66030	ok
69632	09/07/2021 16:09:16	1	95	1123702	1	499	1121782	1126052	1	501	1126021	1131017	1	503	1130262	2	403	correct	1131450	1	503	1130262	fan_18894.png	fan_Klavier.png	inorganic	66030	ok
69632	09/07/2021 16:09:28	1	96	1135415	1	505	1134502	1137781	1	506	1136622	1142779	1	508	1140861	2	273	correct	1143079	1	509	1142982	faj_07849.png	faj_Schuh.png	inorganic	66030	ok
