ID	DateTime	Run	Retrieval_Trial	FaceRecog_OnsetTime	FaceRecog_OnsetTimeUncertainty	FaceRecog_fMRI_Pulse	FaceRecog_fMRI_PulseTime	Assoc_Retrieval_OnsetTime	Assoc_Retrieval_OnsetTimeUncertainty	Assoc_Retrieval_fMRI_Pulse	Assoc_Retrieval_fMRI_PulseTime	Assoc_Retrieval_Pressed_Button	Assoc_Retrieval_RT	Assoc_Retrieval_Response_Category	Assoc_Retrieval_Accuracy	Assoc_Retrieval_Feedback_OnsetTime	Assoc_Retrieval_Feedback_OnsetTimeUncertainty	Assoc_Retrieval_Feedback_fMRI_Pulse	Assoc_Retrieval_Feedback_fMRI_PulseTime	Retrieval_consc_Rating_OnsetTime	Retrieval_consc_Rating_OnsetTimeUncertainty	Retrieval_consc_Rating_fMRI_Pulse	Retrieval_consc_Rating_fMRI_PulseTime	Retrieval_consc_Rating_Pressed_Button	Retrieval_consc_Rating_RT	Retrieval_consc_Rating_Feedback_OnsetTime	Retrieval_consc_Rating_Feedback_OnsetTimeUncertainty	Retrieval_consc_Rating_Feedback_fMRI_Pulse	Retrieval_consc_Rating_Feedback_fMRI_PulseTime	Presented_Person	Presented_Target	Presented_Lure	num_pulse	fifth_pulse_time	TrialStatus
69632	09/07/2021 16:17:06	1	1	1596459	1	665	1595863	1598792	1	666	1597983	3	1721	inorganic	incorrect	1600541	1	667	1600102	1602474	1	668	1602223	3	2003	1604506	1	669	1604343	fal_07906.png	fal_Korb.png	fal_Buegeleisen.png	665	1595863	ok
69632	09/07/2021 16:17:19	1	2	1605922	1	669	1604343	1609138	1	671	1608582	0	0	inorganic	miss	1609138	1	672	1610703	1613970	1	673	1612823	2	1670	1615669	1	674	1614943	fap_16329.png	fap_Kissen.png	fap_Knopf.png	665	1595863	ok
69632	09/07/2021 16:17:30	1	3	1618285	1	675	1617062	1621484	1	677	1621303	2	445	inorganic	correct	1621950	1	677	1621303	1624933	1	678	1623422	4	418	1625383	1	678	1623422	mae_01010.png	mae_Schach.png	mae_Taschenrechner.png	665	1595863	ok
69632	09/07/2021 16:17:40	1	4	1629731	1	680	1627663	1632114	1	682	1631902	2	1464	organic	incorrect	1633630	1	682	1631902	1636279	1	684	1636143	3	1286	1637595	1	684	1636143	mou_01862.png	mou_Croissant.png	mou_Kraehe.png	665	1595863	ok
69632	09/07/2021 16:17:52	1	5	1639728	1	685	1638262	1642410	1	686	1640382	3	1850	inorganic	incorrect	1644293	1	687	1642503	1646359	1	688	1644623	2	1358	1647742	1	689	1646742	fax_14883.png	fax_Klebeband.png	fax_Fahrrad.png	665	1595863	ok
69632	09/07/2021 16:18:03	1	6	1651390	1	691	1650983	1653840	1	692	1653103	3	557	organic	correct	1654423	1	692	1653103	1658605	1	694	1657342	4	338	1658971	1	694	1657342	mos_20953.png	mos_Eintagsfliege.png	mos_Traube.png	665	1595863	ok
69632	09/07/2021 16:18:12	1	7	1662120	1	696	1661582	1664136	1	697	1663702	2	1656	organic	incorrect	1665819	1	697	1663702	1667618	1	698	1665822	3	1604	1669251	1	699	1667943	moj_11821.png	moj_Blatt.png	moj_Walnuss.png	665	1595863	ok
69632	09/07/2021 16:18:24	1	8	1671717	1	700	1670062	1674466	1	702	1674303	3	1900	organic	correct	1676399	1	702	1674303	1679114	1	704	1678542	2	261	1679414	1	704	1678542	fov_15046.png	fov_Zucchini.png	fov_Fisch.png	665	1595863	ok
69632	09/07/2021 16:18:36	1	9	1683846	1	706	1682783	1686095	1	707	1684902	3	1530	inorganic	incorrect	1687661	1	708	1687022	1691127	1	709	1689142	3	1213	1692377	1	710	1691263	far_00736.png	far_Giesskanne.png	far_Heissluftballon.png	665	1595863	ok
69632	09/07/2021 16:18:47	1	10	1695076	1	711	1693382	1697908	1	713	1697622	2	1880	organic	incorrect	1699824	1	714	1699742	1702606	1	715	1701862	3	1369	1704006	1	715	1701862	fot_00797.png	fot_Taube.png	fot_Salat.png	665	1595863	ok
69632	09/07/2021 16:18:59	1	11	1706588	1	717	1706102	1709954	1	718	1708222	2	1790	organic	incorrect	1711770	1	719	1710342	1714219	1	720	1712462	2	283	1714536	1	720	1712462	moh_06446.png	moh_Muecke.png	moh_Birne.png	665	1595863	ok
69632	09/07/2021 16:19:11	1	12	1718751	1	722	1716702	1721117	1	724	1720942	3	1938	inorganic	incorrect	1723083	1	724	1720942	1725849	1	726	1725182	2	878	1726748	1	726	1725182	fat_12032.png	fat_Einkaufswagen.png	fat_Kleiderbuegel.png	665	1595863	ok
69632	09/07/2021 16:19:22	1	13	1730697	1	728	1729422	1733729	1	730	1733662	3	1354	inorganic	incorrect	1735112	1	730	1733662	1737278	1	731	1735782	2	898	1738211	1	732	1737901	mao_11634.png	mao_Kegel.png	mao_Stempel.png	665	1595863	ok
69632	09/07/2021 16:19:33	1	14	1741243	1	733	1740022	1743176	1	734	1742142	2	1025	inorganic	correct	1744226	1	734	1742142	1747808	1	736	1746381	4	291	1748124	1	736	1746381	mas_41366.png	mas_Bueroklammer.png	mas_Tisch.png	665	1595863	ok
69632	09/07/2021 16:19:44	1	15	1752290	1	738	1750622	1754156	1	739	1752741	3	1192	inorganic	incorrect	1755372	1	740	1754862	1758321	1	741	1756982	3	945	1759287	1	742	1759102	fag_06539.png	fag_Portemonnaie.png	fag_Geschenk.png	665	1595863	ok
69632	09/07/2021 16:19:55	1	16	1763119	1	743	1761221	1766318	1	745	1765462	3	1253	organic	correct	1767601	1	745	1765462	1770200	1	747	1769701	3	2262	1772499	1	748	1771822	mof_02408.png	mof_Hahn.png	mof_Spaghetti.png	665	1595863	ok
69632	09/07/2021 16:20:06	1	17	1774915	1	749	1773942	1776765	1	750	1776061	2	468	organic	incorrect	1777281	1	750	1776061	1782030	1	752	1780302	2	225	1782279	1	752	1780302	fok_09378.png	fok_Palme.png	fok_Kaenguruh.png	665	1595863	ok
69632	09/07/2021 16:20:18	1	18	1785678	1	754	1784541	1788861	1	756	1788782	3	360	organic	correct	1789244	1	756	1788782	1792743	1	757	1790901	4	270	1793042	1	757	1790901	mot_69374.png	mot_Bison.png	mot_Hotdog.png	665	1595863	ok
69632	09/07/2021 16:20:30	1	19	1797458	1	760	1797262	1800073	1	761	1799381	2	1881	inorganic	correct	1801989	1	762	1801501	1804922	1	763	1803622	3	224	1805172	1	763	1803622	mal_04470.png	mal_Drucker.png	mal_Kugelschreiber.png	665	1595863	ok
69632	09/07/2021 16:20:42	1	20	1809770	1	765	1807861	1812353	1	767	1812102	2	1136	organic	incorrect	1813519	1	767	1812102	1816534	1	769	1816341	3	547	1817118	1	769	1816341	foc_02157.png	foc_Eule.png	foc_Brombeere.png	665	1595863	ok
69632	09/07/2021 16:20:54	1	21	1821549	1	771	1820582	1824865	1	773	1824821	2	1628	organic	incorrect	1826548	1	773	1824821	1829463	1	775	1829061	2	811	1830313	1	775	1829061	mob_00760.png	mob_Kiwi.png	mob_Igel.png	665	1595863	ok
69632	09/07/2021 16:21:06	1	22	1833479	1	777	1833301	1835145	1	777	1833301	3	935	organic	correct	1836111	1	778	1835422	1840276	1	780	1839661	4	305	1840610	1	780	1839661	mom_59361.png	mom_Ei.png	mom_Loewe.png	665	1595863	ok
69632	09/07/2021 16:21:16	1	23	1845225	1	782	1843902	1848274	1	784	1848141	3	911	organic	correct	1849207	1	784	1848141	1851923	1	785	1850261	4	382	1852339	1	785	1850261	fop_00621.png	fop_Mango.png	fop_Koala.png	665	1595863	ok
69632	09/07/2021 16:21:26	1	24	1855904	1	787	1854501	1858070	1	788	1856621	3	1211	inorganic	incorrect	1859303	1	789	1858741	1861852	1	790	1860861	2	1611	1863485	1	791	1862981	fac_02146.png	fac_Haarbuerste.png	fac_Ohrring.png	665	1595863	ok
69632	09/07/2021 16:21:38	1	25	1865701	1	792	1865101	1869150	1	793	1867221	2	499	organic	incorrect	1869683	1	794	1869341	1873215	1	795	1871461	2	1271	1874515	1	796	1873581	fou_17118.png	fou_Feige.png	fou_Schmetterling.png	665	1595863	ok
69632	09/07/2021 16:21:50	1	26	1877481	1	797	1875701	1881063	1	799	1879941	2	1374	inorganic	correct	1882462	1	800	1882061	1884995	1	801	1884181	4	742	1885761	1	801	1884181	fai_07494.png	fai_Foehn.png	fai_Kommode.png	665	1595863	ok
69632	09/07/2021 16:22:01	1	27	1889143	1	803	1888421	1891892	1	804	1890540	2	246	organic	incorrect	1892176	1	804	1890540	1896774	1	806	1894781	2	1369	1898174	1	807	1896901	foe_08236.png	foe_Tannenzapfen.png	foe_Adler.png	665	1595863	ok
69632	09/07/2021 16:22:14	1	28	1900806	1	808	1899020	1903872	1	810	1903261	2	1002	inorganic	correct	1904905	1	810	1903261	1907887	1	812	1907500	3	230	1908153	1	812	1907500	map_41499.png	map_Globus.png	map_Pfeife.png	665	1595863	ok
69632	09/07/2021 16:22:24	1	29	1913152	1	814	1911741	1914851	1	815	1913860	3	1115	organic	correct	1916001	1	815	1913860	1920016	1	817	1918101	4	236	1920283	1	818	1920221	foi_03389.png	foi_Apfelkuchen.png	foi_Pflanze.png	665	1595863	ok
69632	09/07/2021 16:22:36	1	30	1923831	1	819	1922340	1927297	1	821	1926581	2	851	organic	incorrect	1928197	1	821	1926581	1931429	1	823	1930820	2	1006	1932462	1	823	1930820	mon_65798.png	mon_Fuchs.png	mon_Kartoffel.png	665	1595863	ok
69632	09/07/2021 16:22:46	1	31	1935677	1	825	1935061	1937977	1	826	1937180	3	1021	inorganic	incorrect	1939026	1	826	1937180	1941459	1	828	1941421	2	854	1942342	1	828	1941421	mac_59169.png	mac_Medaille.png	mac_Dartpfeil.png	665	1595863	ok
69632	09/07/2021 16:22:56	1	32	1945041	1	829	1943540	1948057	1	831	1947781	2	373	inorganic	correct	1948456	1	831	1947781	1951439	1	832	1949901	4	355	1951822	1	832	1949901	mai_06530.png	mai_Gewehr.png	mai_Auto.png	665	1595863	ok
69632	09/07/2021 16:23:08	1	33	1955071	1	834	1954140	1957770	1	835	1956261	3	1576	inorganic	incorrect	1959369	1	836	1958381	1963068	1	838	1962620	2	218	1963318	1	838	1962620	mau_49693.png	mau_Leiter.png	mau_Wasserventil.png	665	1595863	ok
69632	09/07/2021 16:23:19	1	34	1967917	1	840	1966860	1970866	1	841	1968980	2	212	inorganic	correct	1971099	1	841	1968980	1975114	1	843	1973221	4	1212	1976380	1	844	1975340	mat_23275.png	mat_Feuerzeug.png	mat_Helm.png	665	1595863	ok
69632	09/07/2021 16:23:31	1	35	1978830	1	845	1977460	1980995	1	846	1979580	3	1721	organic	correct	1982745	1	847	1981701	1985377	1	848	1983820	2	254	1985661	1	848	1983820	mog_03090.png	mog_Fledermaus.png	mog_Pilz.png	665	1595863	ok
69632	09/07/2021 16:23:41	1	36	1990292	1	851	1990180	1992075	1	851	1990180	2	1025	inorganic	correct	1993125	1	852	1992300	1996190	1	853	1994420	4	270	1996490	1	853	1994420	faw_14215.png	faw_Hufeisen.png	faw_Kuechenmaschine.png	665	1595863	ok
69632	09/07/2021 16:23:51	1	37	2000772	1	855	1998660	2002988	1	857	2002900	3	1585	organic	correct	2004604	1	857	2002900	2006670	1	858	2005020	3	1767	2008470	1	859	2007140	mol_07679.png	mol_Schimpanse.png	mol_Pizza.png	665	1595863	ok
69632	09/07/2021 16:24:01	1	38	2010152	1	860	2009260	2013301	1	861	2011380	2	1744	organic	incorrect	2015067	1	862	2013500	2017150	1	863	2015620	2	361	2017533	1	863	2015620	foa_00207.png	foa_Marienkaefer.png	foa_Aubergine.png	665	1595863	ok
69632	09/07/2021 16:24:11	1	39	2020499	1	865	2019859	2022232	1	866	2021980	3	1900	organic	correct	2024181	1	867	2024100	2026047	1	867	2024100	2	201	2026297	1	868	2026220	foq_16799.png	foq_Pinguin.png	foq_Fenchel.png	665	1595863	ok
69632	09/07/2021 16:24:22	1	40	2030662	1	870	2030460	2032461	1	870	2030460	2	904	inorganic	correct	2033394	1	871	2032580	2036527	1	872	2034700	3	295	2036843	1	873	2036820	mak_00987.png	mak_Socken.png	mak_Rucksack.png	665	1595863	ok
69632	09/07/2021 16:24:32	1	41	2041408	1	875	2041060	2043174	1	875	2041060	3	1569	inorganic	incorrect	2044774	1	876	2043179	2047989	1	878	2047420	3	454	2048473	1	878	2047420	maw_04767.png	maw_Schlauchboot.png	maw_Pingpongschlaeger.png	665	1595863	ok
69632	09/07/2021 16:24:43	1	42	2051388	1	879	2049540	2053621	1	880	2051659	3	1522	inorganic	incorrect	2055170	1	881	2053780	2058603	1	883	2058020	3	220	2058852	1	883	2058020	fab_06018.png	fab_Staubsauger.png	fab_Kinderwagen.png	665	1595863	ok
69632	09/07/2021 16:24:54	1	43	2062884	1	885	2062260	2065017	1	886	2064380	2	346	inorganic	correct	2065400	1	886	2064380	2070232	1	888	2068620	4	241	2070499	1	888	2068620	maj_01545.png	maj_Krawatte.png	maj_Computermaus.png	665	1595863	ok
69632	09/07/2021 16:25:07	1	44	2073597	1	890	2072860	2076430	1	891	2074979	3	1497	organic	correct	2077979	1	892	2077100	2081611	1	894	2081339	3	270	2081911	1	894	2081339	moe_02012.png	moe_Waschbaer.png	moe_Pommes.png	665	1595863	ok
69632	09/07/2021 16:25:17	1	45	2086926	1	896	2085580	2088726	1	897	2087700	3	2182	inorganic	incorrect	2090942	1	898	2089819	2093307	1	899	2091939	3	943	2094274	1	900	2094060	fan_17286.png	fan_Lampe.png	fan_Klavier.png	665	1595863	ok
69632	09/07/2021 16:25:29	1	46	2096740	1	901	2096180	2099889	1	902	2098299	2	294	inorganic	correct	2100205	1	902	2098299	2104904	1	905	2104659	4	291	2105220	1	905	2104659	faj_07783.png	faj_Parfuem.png	faj_Schuh.png	665	1595863	ok
69632	09/07/2021 16:25:41	1	47	2108652	1	906	2106779	2112151	1	908	2111020	3	487	organic	correct	2112668	1	908	2111020	2116100	1	910	2115259	3	1100	2117233	1	910	2115259	for_15187.png	for_Seehund.png	for_Mandel.png	665	1595863	ok
69632	09/07/2021 16:25:53	1	48	2120315	1	912	2119499	2123814	1	914	2123739	3	1949	organic	correct	2125813	1	914	2123739	2128179	1	916	2127979	4	253	2128462	1	916	2127979	foj_08220.png	foj_Waffel.png	foj_Rose.png	665	1595863	ok
69632	09/07/2021 16:26:04	1	49	2132361	1	918	2132219	2135060	1	919	2134339	3	391	inorganic	incorrect	2135477	1	919	2134339	2139225	1	921	2138579	3	937	2140192	1	921	2138579	fal_07977.png	fal_Buegeleisen.png	fal_Korb.png	665	1595863	ok
69632	09/07/2021 16:26:17	1	50	2143440	1	923	2142819	2146773	1	924	2144939	3	276	organic	correct	2147073	1	924	2144939	2150905	1	926	2149180	4	289	2151221	1	926	2149180	mou_06524.png	mou_Kraehe.png	mou_Croissant.png	665	1595863	ok
69632	09/07/2021 16:26:29	1	51	2155986	1	929	2155539	2159285	1	930	2157659	3	412	inorganic	incorrect	2159735	1	930	2157659	2163600	1	932	2161899	4	615	2164250	1	933	2164019	fap_17119.png	fap_Knopf.png	fap_Kissen.png	665	1595863	ok
69632	09/07/2021 16:26:41	1	52	2168849	1	935	2168259	2171997	1	936	2170379	2	334	inorganic	correct	2172381	1	936	2170379	2176063	1	938	2174619	4	290	2176379	1	938	2174619	mae_36426.png	mae_Taschenrechner.png	mae_Schach.png	665	1595863	ok
69632	09/07/2021 16:26:52	1	53	2180911	1	940	2178859	2183394	1	942	2183099	3	464	inorganic	incorrect	2183893	1	942	2183099	2186959	1	943	2185219	3	496	2187492	1	944	2187339	fax_15310.png	fax_Fahrrad.png	fax_Klebeband.png	665	1595863	ok
69632	09/07/2021 16:27:04	1	54	2191324	1	945	2189459	2193740	1	947	2193699	2	328	organic	incorrect	2194090	1	947	2193699	2198672	1	949	2197939	2	229	2198938	1	949	2197939	moj_11860.png	moj_Walnuss.png	moj_Blatt.png	665	1595863	ok
69632	09/07/2021 16:27:16	1	55	2203287	1	951	2202179	2206003	1	952	2204298	3	279	organic	correct	2206319	1	952	2204298	2211184	1	955	2210659	3	702	2211917	1	955	2210659	mos_23223.png	mos_Traube.png	mos_Eintagsfliege.png	665	1595863	ok
69632	09/07/2021 16:27:27	1	56	2215000	1	957	2214899	2217166	1	958	2217019	3	1168	organic	correct	2218365	1	958	2217019	2221547	1	960	2221258	4	389	2221981	1	960	2221258	fov_15193.png	fov_Fisch.png	fov_Zucchini.png	665	1595863	ok
69632	09/07/2021 16:27:39	1	57	2226179	1	962	2225499	2229645	1	963	2227618	3	628	organic	correct	2230294	1	964	2229739	2234560	1	966	2233978	4	265	2234860	1	966	2233978	fot_06092.png	fot_Salat.png	fot_Taube.png	665	1595863	ok
69632	09/07/2021 16:27:51	1	58	2238658	1	968	2238219	2241491	1	969	2240339	2	238	inorganic	correct	2241757	1	969	2240339	2246572	1	971	2244578	4	197	2246805	1	972	2246699	far_06518.png	far_Heissluftballon.png	far_Giesskanne.png	665	1595863	ok
69632	09/07/2021 16:28:02	1	59	2250204	1	973	2248819	2253437	1	975	2253058	2	445	inorganic	correct	2253903	1	975	2253058	2258568	1	977	2257298	3	163	2258768	1	977	2257298	fat_14140.png	fat_Kleiderbuegel.png	fat_Einkaufswagen.png	665	1595863	ok
69632	09/07/2021 16:28:14	1	60	2261934	1	979	2261538	2263616	1	979	2261538	3	1872	organic	correct	2265516	1	980	2263659	2268248	1	982	2267898	3	217	2268498	1	982	2267898	moh_07125.png	moh_Birne.png	moh_Muecke.png	665	1595863	ok
69632	09/07/2021 16:28:26	1	61	2273446	1	984	2272138	2276895	1	986	2276378	2	341	inorganic	correct	2277262	1	986	2276378	2281810	1	988	2280618	4	582	2282427	1	988	2280618	mao_19000.png	mao_Stempel.png	mao_Kegel.png	665	1595863	ok
69632	09/07/2021 16:28:38	1	62	2285559	1	990	2284858	2288691	1	991	2286979	3	1810	inorganic	incorrect	2290524	1	992	2289098	2292240	1	993	2291218	2	314	2292590	1	993	2291218	fag_06551.png	fag_Geschenk.png	fag_Portemonnaie.png	665	1595863	ok
69632	09/07/2021 16:28:49	1	63	2297372	1	995	2295458	2300737	1	997	2299698	2	1371	inorganic	correct	2302137	1	998	2301818	2304803	1	999	2303938	2	447	2305286	1	999	2303938	mas_41937.png	mas_Tisch.png	mas_Bueroklammer.png	665	1595863	ok
69632	09/07/2021 16:29:01	1	64	2308618	1	1000	2308178	2311117	1	1001	2310298	2	417	organic	incorrect	2311567	1	1001	2310298	2315832	1	1003	2314538	2	226	2316082	1	1003	2314538	mof_06901.png	mof_Spaghetti.png	mof_Hahn.png	665	1595863	ok
69632	09/07/2021 16:29:11	1	65	2320281	1	1005	2318778	2322380	1	1006	2320898	3	327	organic	correct	2322746	1	1006	2320898	2326045	1	1008	2325138	3	1238	2327312	1	1009	2327258	foc_02664.png	foc_Brombeere.png	foc_Eule.png	665	1595863	ok
69632	09/07/2021 16:29:24	1	66	2330744	1	1010	2329378	2333993	1	1012	2333617	3	250	organic	correct	2334276	1	1012	2333617	2338241	1	1014	2337858	3	231	2338508	1	1014	2337858	fok_09860.png	fok_Kaenguruh.png	fok_Palme.png	665	1595863	ok
69632	09/07/2021 16:29:35	1	67	2343006	1	1016	2342097	2346472	1	1018	2346338	2	514	organic	incorrect	2347022	1	1018	2346338	2350071	1	1019	2348457	3	899	2351004	1	1020	2350578	mot_69770.png	mot_Hotdog.png	mot_Bison.png	665	1595863	ok
69632	09/07/2021 16:29:45	1	68	2353969	1	1021	2352698	2356268	1	1022	2354818	2	1350	inorganic	correct	2357651	1	1023	2356937	2360917	1	1024	2359058	3	573	2361517	1	1025	2361178	mal_20552.png	mal_Kugelschreiber.png	mal_Drucker.png	665	1595863	ok
69632	09/07/2021 16:29:57	1	69	2364882	1	1026	2363298	2368298	1	1028	2367538	3	797	organic	correct	2369147	1	1028	2367538	2372196	1	1030	2371777	3	1913	2374146	1	1031	2373897	mom_59641.png	mom_Loewe.png	mom_Ei.png	665	1595863	ok
69632	09/07/2021 16:30:09	1	70	2376428	1	1032	2376018	2379794	1	1033	2378138	3	253	organic	correct	2380077	1	1033	2378138	2384426	1	1035	2382377	3	265	2384725	1	1036	2384498	mob_22833.png	mob_Igel.png	mob_Kiwi.png	665	1595863	ok
69632	09/07/2021 16:30:19	1	71	2388024	1	1037	2386617	2390157	1	1038	2388737	3	1877	inorganic	incorrect	2392056	1	1039	2390858	2393589	1	1040	2392978	3	1855	2395472	1	1041	2395097	fac_02970.png	fac_Ohrring.png	fac_Haarbuerste.png	665	1595863	ok
69632	09/07/2021 16:30:31	1	72	2398421	1	1042	2397217	2401920	1	1044	2401458	3	806	organic	correct	2402753	1	1044	2401458	2407018	1	1046	2405697	2	227	2407268	1	1046	2405697	fop_07937.png	fop_Koala.png	fop_Mango.png	665	1595863	ok
69632	09/07/2021 16:30:42	1	73	2410833	1	1048	2409937	2413982	1	1049	2412057	3	1229	organic	correct	2415248	1	1050	2414177	2417431	1	1051	2416298	4	736	2418197	1	1051	2416298	foe_08514.png	foe_Adler.png	foe_Tannenzapfen.png	665	1595863	ok
69632	09/07/2021 16:30:54	1	74	2421846	1	1053	2420537	2423579	1	1054	2422657	3	399	inorganic	incorrect	2424012	1	1054	2422657	2428194	1	1056	2426897	2	287	2428511	1	1056	2426897	fai_07637.png	fai_Kommode.png	fai_Foehn.png	665	1595863	ok
69632	09/07/2021 16:31:04	1	75	2433192	1	1058	2431138	2435025	1	1059	2433257	3	404	organic	correct	2435458	1	1060	2435377	2439357	1	1061	2437497	2	448	2439840	1	1062	2439618	fou_18966.png	fou_Schmetterling.png	fou_Feige.png	665	1595863	ok
69632	09/07/2021 16:31:16	1	76	2443755	1	1063	2441737	2446988	1	1065	2445977	3	153	inorganic	incorrect	2447171	1	1065	2445977	2451853	1	1067	2450217	2	199	2452086	1	1067	2450217	map_49576.png	map_Pfeife.png	map_Globus.png	665	1595863	ok
69632	09/07/2021 16:31:29	1	77	2455768	1	1069	2454457	2458950	1	1071	2458697	2	361	organic	incorrect	2459334	1	1071	2458697	2463699	1	1073	2462937	2	189	2463915	1	1073	2462937	mon_69587.png	mon_Kartoffel.png	mon_Fuchs.png	665	1595863	ok
69632	09/07/2021 16:31:42	1	78	2468430	1	1075	2467177	2471246	1	1076	2469297	2	217	inorganic	correct	2471513	1	1077	2471417	2476311	1	1079	2475657	4	224	2476561	1	1079	2475657	mai_23761.png	mai_Auto.png	mai_Gewehr.png	665	1595863	ok
69632	09/07/2021 16:31:53	1	79	2481459	1	1081	2479897	2484059	1	1082	2482017	3	753	organic	correct	2484842	1	1083	2484137	2487424	1	1084	2486256	2	562	2488024	1	1084	2486256	foi_05187.png	foi_Pflanze.png	foi_Apfelkuchen.png	665	1595863	ok
69632	09/07/2021 16:32:05	1	80	2492522	1	1086	2490497	2495805	1	1088	2494736	2	650	inorganic	correct	2496488	1	1088	2494736	2500070	1	1090	2498977	3	223	2500320	1	1090	2498977	mac_59752.png	mac_Dartpfeil.png	mac_Medaille.png	665	1595863	ok
69632	09/07/2021 16:32:16	1	81	2504468	1	1092	2503216	2507151	1	1093	2505337	3	320	inorganic	incorrect	2507501	1	1094	2507457	2511649	1	1095	2509576	3	228	2511899	1	1096	2511697	faw_14685.png	faw_Kuechenmaschine.png	faw_Hufeisen.png	665	1595863	ok
69632	09/07/2021 16:32:28	1	82	2515348	1	1097	2513817	2518214	1	1099	2518056	2	200	inorganic	correct	2518464	1	1099	2518056	2522829	1	1101	2522297	4	218	2523079	1	1101	2522297	mat_23754.png	mat_Helm.png	mat_Feuerzeug.png	665	1595863	ok
69632	09/07/2021 16:32:39	1	83	2527644	1	1103	2526536	2530893	1	1105	2530777	3	241	organic	correct	2531159	1	1105	2530777	2535008	1	1106	2532896	3	866	2535908	1	1107	2535016	mog_03277.png	mog_Pilz.png	mog_Fledermaus.png	665	1595863	ok
69632	09/07/2021 16:32:50	1	84	2538757	1	1108	2537137	2540523	1	1109	2539256	2	317	inorganic	correct	2540873	1	1109	2539256	2545804	1	1112	2545617	3	214	2546054	1	1112	2545617	mau_58144.png	mau_Wasserventil.png	mau_Leiter.png	665	1595863	ok
69632	09/07/2021 16:33:01	1	85	2549470	1	1113	2547736	2551819	1	1114	2549856	2	403	inorganic	correct	2552252	1	1115	2551977	2556484	1	1117	2556216	2	290	2556801	1	1117	2556216	mak_03979.png	mak_Rucksack.png	mak_Socken.png	665	1595863	ok
69632	09/07/2021 16:33:12	1	86	2559983	1	1118	2558336	2563082	1	1120	2562576	3	385	organic	correct	2563498	1	1120	2562576	2566564	1	1121	2564696	4	448	2567064	1	1122	2566816	foa_00426.png	foa_Aubergine.png	foa_Marienkaefer.png	665	1595863	ok
69632	09/07/2021 16:33:23	1	87	2571096	1	1123	2568937	2573745	1	1125	2573176	3	375	organic	correct	2574145	1	1125	2573176	2577577	1	1127	2577416	4	393	2577993	1	1127	2577416	foq_17341.png	foq_Fenchel.png	foq_Pinguin.png	665	1595863	ok
69632	09/07/2021 16:33:34	1	88	2582542	1	1129	2581656	2585891	1	1130	2583776	3	839	organic	correct	2586757	1	1131	2585896	2590239	1	1133	2590136	4	394	2590656	1	1133	2590136	mol_11363.png	mol_Pizza.png	mol_Schimpanse.png	665	1595863	ok
69632	09/07/2021 16:33:45	1	89	2593621	1	1134	2592257	2596754	1	1136	2596496	2	1164	inorganic	correct	2597953	1	1136	2596496	2601469	1	1138	2600736	4	311	2601802	1	1138	2600736	fab_06286.png	fab_Kinderwagen.png	fab_Staubsauger.png	665	1595863	ok
69632	09/07/2021 16:33:57	1	90	2604834	1	1139	2602856	2607733	1	1141	2607096	3	505	inorganic	incorrect	2608266	1	1141	2607096	2612732	1	1143	2611336	3	268	2613032	1	1143	2611336	maj_01546.png	maj_Computermaus.png	maj_Krawatte.png	665	1595863	ok
69632	09/07/2021 16:34:08	1	91	2616914	1	1145	2615576	2618830	1	1146	2617696	3	682	organic	correct	2619563	1	1146	2617696	2623595	1	1148	2621936	4	1163	2624794	1	1149	2624056	moe_23630.png	moe_Pommes.png	moe_Waschbaer.png	665	1595863	ok
69632	09/07/2021 16:34:19	1	92	2627477	1	1150	2626176	2629243	1	1151	2628296	3	2270	inorganic	incorrect	2631542	1	1152	2630416	2632975	1	1153	2632536	3	1185	2634191	1	1153	2632536	maw_22459.png	maw_Pingpongschlaeger.png	maw_Schlauchboot.png	665	1595863	ok
69632	09/07/2021 16:34:30	1	93	2638206	1	1155	2636776	2640839	1	1156	2638894	3	1668	organic	correct	2642538	1	1157	2641016	2645437	1	1159	2645256	3	989	2646454	1	1159	2645256	for_15880.png	for_Mandel.png	for_Seehund.png	665	1595863	ok
69632	09/07/2021 16:34:43	1	94	2649003	1	1160	2647375	2652085	1	1162	2651616	2	258	organic	incorrect	2652368	1	1162	2651616	2656883	1	1164	2655855	3	1117	2658033	1	1165	2657976	foj_08937.png	foj_Rose.png	foj_Waffel.png	665	1595863	ok
69632	09/07/2021 16:34:54	1	95	2662232	1	1166	2660095	2664514	1	1168	2664335	2	728	inorganic	correct	2665280	1	1168	2664335	2668613	1	1169	2666456	2	202	2668863	1	1170	2668576	fan_18894.png	fan_Klavier.png	fan_Lampe.png	665	1595863	ok
69632	09/07/2021 16:35:05	1	96	2673294	1	1172	2672815	2675277	1	1173	2674935	2	713	inorganic	correct	2676027	1	1173	2674935	2679592	1	1174	2677054	2	1233	2680859	1	1174	2677054	faj_07849.png	faj_Schuh.png	faj_Parfuem.png	665	1595863	ok
